timestamp,ax,ay,az,gx,gy,gz
0.00000000,0.0372,4.4842,-2.9732,-2.6920,9.0539,-6.3982
0.00500000,-5.0974,5.4678,-12.2921,-9.7345,-0.0563,-12.6322
0.01000000,-7.3121,-0.7766,-14.2770,-1.1065,-0.5214,-4.6332
0.01500000,-1.8354,-2.1986,-5.3835,-0.0488,1.4278,1.2054
0.02000000,-0.4131,-0.1584,-0.3998,-2.2611,0.6376,-0.9228
0.02500000,-1.9503,-0.7673,-1.7659,-0.4925,-0.4190,-1.2421
0.03000000,-0.4015,-0.4694,-1.8732,0.3163,0.4503,-0.6099
0.03500000,0.4999,0.2854,-1.0696,0.0971,0.2506,-0.6816
0.04000000,0.2000,0.1162,-1.0849,-0.2715,0.1747,-0.8641
0.04500000,-0.2816,0.1579,-1.1062,-0.6473,0.7340,-0.6505
0.05000000,-0.7378,0.5955,-1.0189,-0.8756,0.7463,-0.7612
0.05500000,-0.9488,0.6551,-1.0569,-0.7994,0.7246,-0.7127
0.06000000,-0.9017,0.5715,-1.0136,-0.6378,0.5019,-0.6418
0.06500000,-0.7350,0.5129,-0.9431,-0.3878,0.5182,-0.6492
0.07000000,-0.4955,0.6306,-0.9323,-0.1600,0.6251,-0.5705
0.07500000,-0.2247,0.8169,-0.8607,0.0173,0.6603,-0.5015
0.08000000,-0.1316,0.7939,-0.8608,-0.1058,0.4623,-0.6237
0.08500000,-0.2072,0.5933,-0.9352,-0.0891,0.2939,-0.6294
0.09000000,-0.1536,0.4544,-0.9302,0.0417,0.3164,-0.6528
0.09500000,-0.0602,0.4215,-0.9078,-0.0152,0.3476,-0.6465
0.10000000,-0.0860,0.3861,-0.9787,0.0023,0.4185,-0.7735
0.10500000,-0.1388,0.3975,-1.0228,-0.0615,0.5172,-0.5952
0.11000000,-0.2249,0.5837,-0.8878,-0.1196,0.8987,-0.4253
0.11500000,-0.2377,0.7141,-0.8229,-0.0280,0.7418,-0.4768
0.12000000,-0.2080,0.6399,-0.9045,-0.0899,1.0590,-0.4289
0.12500000,-0.2065,0.5622,-0.9101,0.0562,0.8881,-0.3906
0.13000000,-0.1655,0.3690,-0.8967,0.0078,0.7051,-0.4114
0.13500000,-0.1329,0.2407,-0.9145,0.0365,0.8181,-0.4398
0.14000000,0.0098,0.2608,-0.9093,0.1945,0.7459,-0.4107
0.14500000,0.1417,0.1241,-0.8377,0.0640,0.8244,-0.3069
0.15000000,-0.1887,-0.0010,-0.7165,-0.6026,0.9483,-0.3432
0.15500000,-0.5389,0.1269,-0.6991,-0.6170,1.0578,-0.5754
0.16000000,-0.4008,0.2631,-0.8096,-0.6283,0.6853,-0.6391
0.16500000,-0.1950,0.2989,-0.9220,-0.4762,0.8179,-0.7582
0.17000000,0.1813,0.4635,-0.9664,0.1021,0.5743,-0.6992
0.17500000,0.5350,0.4596,-0.8964,-0.0730,-0.0753,-0.2697
0.18000000,0.2955,0.3110,-1.0053,-0.3796,0.6830,-0.5424
0.18500000,-0.0213,0.3995,-1.4301,-0.3425,1.2519,-0.8452
0.19000000,0.0890,0.5344,-1.6937,0.0849,1.5069,-0.9386
0.19500000,0.4520,0.6466,-1.7663,0.3253,1.8281,-1.0056
0.20000000,0.7166,0.7876,-2.1236,0.5307,2.0149,-1.4304
0.20500000,0.4682,0.8850,-2.5795,-0.1488,2.0390,-1.3687
0.21000000,-0.1073,1.0889,-3.0123,-0.1924,2.3790,-2.0341
0.21500000,-0.3763,1.3193,-3.4419,-0.0342,2.3008,-1.8614
0.22000000,-0.7344,1.0287,-3.1736,-0.5485,1.7166,-1.0463
0.22500000,-1.4926,0.6649,-2.0692,-1.2133,1.9764,0.1427
0.23000000,-2.7816,0.8546,-1.0589,-3.1485,2.1008,0.4307
0.23500000,-4.7826,1.5046,-1.2693,-4.6470,2.9763,-1.0196
0.24000000,-4.7308,2.4679,-2.1281,-1.8882,3.0159,-1.3582
0.24500000,-2.2363,2.8119,-1.9132,-1.1573,2.5415,-0.5013
0.25000000,-1.2578,2.2319,-0.6509,-1.6323,1.8370,0.2263
0.25500000,-1.4524,1.2564,0.1101,-1.2356,1.1068,-0.0276
0.26000000,-0.9703,0.3208,-0.3737,-0.7913,0.9682,-0.8512
0.26500000,-0.5466,0.0421,-1.4819,-0.5688,1.3173,-1.6708
0.27000000,-0.3956,0.2798,-2.5222,-0.3687,1.6483,-2.2418
0.27500000,-0.2062,0.4724,-3.3147,-0.1689,1.7224,-2.6432
0.28000000,-0.0028,0.4940,-3.9428,-0.2600,1.6755,-2.8774
0.28500000,0.0685,0.4077,-4.4581,-0.3115,1.4800,-3.0563
0.29000000,0.0530,0.2700,-4.7828,-0.3280,1.2656,-3.0296
0.29500000,0.0857,0.1266,-4.7516,-0.1779,1.0309,-2.6159
0.30000000,0.3241,-0.0106,-4.3132,0.1935,0.8223,-2.0096
0.30500000,0.7277,-0.1037,-3.7514,0.4923,0.7791,-1.5192
0.31000000,1.0363,-0.0334,-3.4222,0.6282,0.9463,-1.2717
0.31500000,1.1659,0.2609,-3.4232,0.6625,1.2523,-1.2294
0.32000000,1.1890,0.6908,-3.6447,0.6362,1.5334,-1.3512
0.32500000,1.1546,1.1199,-3.9086,0.5976,1.7251,-1.4880
0.33000000,1.1056,1.4948,-4.0779,0.5719,1.8565,-1.5346
0.33500000,1.0732,1.8093,-4.1322,0.5936,1.7896,-1.5183
0.34000000,1.0503,2.0468,-4.1093,0.5977,1.8069,-1.4618
0.34500000,1.0210,2.2779,-3.9882,0.5892,1.9358,-1.2960
0.35000000,0.9943,2.5999,-3.7210,0.5486,2.1391,-1.0767
0.35500000,0.9897,2.9491,-3.3271,0.5010,2.2627,-0.9155
0.36000000,1.0360,3.2158,-2.8891,0.4635,2.3492,-0.8340
0.36500000,1.1410,3.3738,-2.5190,0.4391,2.3681,-0.8743
0.37000000,1.2373,3.3973,-2.3158,0.3796,2.2639,-1.0765
0.37500000,1.2766,3.3075,-2.2517,0.3843,2.1169,-1.2889
0.38000000,1.3102,3.1708,-2.1550,0.4859,1.9379,-1.3891
0.38500000,1.3707,3.0066,-1.9154,0.7587,1.6858,-1.5946
0.39000000,1.4201,2.8263,-1.6338,0.8828,1.4730,-1.6529
0.39500000,1.4286,2.6511,-1.4383,0.9659,1.2693,-1.7327
0.40000000,1.3787,2.3882,-1.3799,0.9604,0.8554,-1.9658
0.40500000,1.2460,1.9680,-1.5184,0.8917,0.4270,-2.2987
0.41000000,1.0705,1.5242,-1.7684,0.8438,0.0156,-2.5566
0.41500000,0.9267,1.1231,-1.9645,0.8401,-0.4150,-2.7049
0.42000000,0.8286,0.7437,-2.0831,0.8630,-0.8180,-2.7835
0.42500000,0.7409,0.4290,-2.1788,0.8655,-1.1326,-2.8276
0.43000000,0.6231,0.2038,-2.2815,0.8156,-1.2966,-2.7678
0.43500000,0.4645,0.0688,-2.3843,0.7518,-1.3445,-2.7359
0.44000000,0.2933,0.0117,-2.4616,0.6359,-1.3659,-2.6571
0.44500000,0.1453,-0.0152,-2.4760,0.5352,-1.3907,-2.5166
0.45000000,0.0120,-0.0276,-2.4394,0.4215,-1.3811,-2.3901
0.45500000,-0.1407,-0.0059,-2.4120,0.3065,-1.3557,-2.2936
0.46000000,-0.3214,0.0461,-2.4066,0.1907,-1.3064,-2.2137
0.46500000,-0.5151,0.1326,-2.4017,0.0919,-1.2245,-2.1459
0.47000000,-0.6941,0.2681,-2.3838,0.0171,-1.1031,-2.0755
0.47500000,-0.8547,0.4684,-2.3394,-0.0770,-0.9209,-2.0018
0.48000000,-1.0077,0.7355,-2.2500,-0.1652,-0.7087,-1.9407
0.48500000,-1.1224,1.0273,-2.1208,-0.2404,-0.5066,-1.9165
0.49000000,-1.1833,1.2720,-2.0206,-0.2730,-0.3827,-1.9931
0.49500000,-1.2098,1.4252,-1.9926,-0.2471,-0.3103,-2.1203
0.50000000,-1.2217,1.5570,-2.0504,-0.2205,-0.1725,-2.3689
0.50500000,-1.2877,1.7144,-2.2599,-0.2741,-0.0779,-2.7717
0.51000000,-1.4143,1.7862,-2.5703,-0.2751,-0.1100,-3.1467
0.51500000,-1.5342,1.7011,-2.8167,-0.2975,-0.2304,-3.3703
0.52000000,-1.6678,1.5207,-2.9547,-0.3685,-0.3752,-3.4386
0.52500000,-1.8451,1.3271,-3.0510,-0.4972,-0.4974,-3.5131
0.53000000,-2.0604,1.1452,-3.1545,-0.7551,-0.6319,-3.5955
0.53500000,-2.2944,0.9521,-3.2883,-1.0137,-0.7770,-3.7318
0.54000000,-2.6125,0.5952,-3.5248,-1.4546,-1.2251,-3.9943
0.54500000,-3.0434,0.0217,-3.8066,-1.8493,-1.6255,-4.1282
0.55000000,-3.4377,-0.5316,-3.9215,-2.0719,-1.9585,-4.0566
0.55500000,-3.8191,-0.9872,-3.8417,-2.3669,-2.2702,-3.7413
0.56000000,-4.3128,-1.3586,-3.6669,-2.7118,-2.4577,-3.3104
0.56500000,-5.1031,-1.5624,-3.2032,-3.5151,-2.5194,-2.4074
0.57000000,-6.1202,-1.6092,-2.3015,-4.0849,-2.5038,-1.4650
0.57500000,-6.8622,-1.5868,-1.3404,-4.4796,-2.4993,-0.6182
0.58000000,-7.3066,-1.6054,-0.5509,-5.0887,-2.5630,-0.0105
0.58500000,-7.6560,-1.7396,0.1734,-5.4663,-2.5777,0.5476
0.59000000,-7.8548,-1.9593,0.7601,-5.7208,-2.4693,0.9200
0.59500000,-7.9204,-2.1171,1.0890,-5.8214,-2.2243,1.1498
0.60000000,-7.8671,-2.0149,1.2585,-5.7126,-1.7276,1.3826
0.60500000,-7.6278,-1.5439,1.4530,-5.3195,-0.8092,1.6627
0.61000000,-7.2115,-0.8062,1.7195,-4.9526,-0.0282,1.7983
0.61500000,-6.8367,-0.2023,2.3674,-4.8340,0.4915,2.6003
0.62000000,-6.8334,-0.0209,3.3259,-5.1945,0.9322,2.8695
0.62500000,-7.2128,-0.2182,3.5221,-5.4622,0.8968,2.1894
0.63000000,-8.5498,-1.7636,3.7364,-7.0992,-1.5106,3.5865
0.63500000,-8.8777,-3.1992,4.4639,-4.4806,-0.2643,3.4608
0.64000000,-4.7262,-0.9599,0.9270,-0.3046,3.0373,-3.2676
0.64500000,-0.1598,2.2500,-5.0913,-0.1943,3.4357,-3.7879
0.65000000,-0.6922,5.3070,-8.3546,-3.3146,8.0954,-7.0777
0.65500000,-6.3186,4.7988,-12.8717,-10.2072,-0.1092,-11.6337
0.66000000,-7.8468,-2.7501,-11.1029,-1.4301,-5.2536,0.3134
0.66500000,0.1075,-4.5689,-1.1401,3.8676,0.6236,1.6762
0.67000000,3.1458,0.5902,0.8502,-1.7432,2.8118,-1.2068
0.67500000,-1.9669,1.3497,-2.5241,-3.1760,0.8216,-1.6561
0.68000000,-2.9520,-0.4584,-2.6204,-0.4265,-0.1204,-0.9465
0.68500000,-0.3076,-0.2705,-1.4962,0.3476,0.6329,-0.4396
0.69000000,0.4363,0.4909,-0.9690,-0.1751,0.2984,-0.7040
0.69500000,-0.2199,0.2829,-1.1161,-0.7107,0.2676,-0.6605
0.70000000,-0.7282,0.2229,-1.0587,-0.8079,0.5499,-0.3958
0.70500000,-0.8795,0.6160,-0.9222,-0.7903,0.5097,-0.5374
0.71000000,-0.9715,0.7243,-1.0191,-0.8994,0.2560,-0.5831
0.71500000,-0.8956,0.5106,-1.0472,-0.4356,-0.0260,-0.6290
0.72000000,-0.4047,0.4190,-0.9521,-0.0338,0.4066,-0.5707
0.72500000,-0.0399,0.7066,-0.8721,-0.0456,0.5685,-0.5646
0.73000000,-0.1334,0.7696,-0.8793,-0.2697,0.3509,-0.6295
0.73500000,-0.3211,0.4925,-0.9418,-0.2539,0.2138,-0.6632
0.74000000,-0.3113,0.3197,-0.9597,-0.1761,0.2634,-0.6254
0.74500000,-0.2404,0.2772,-0.9505,-0.1771,0.2484,-0.6491
0.75000000,-0.2641,0.3487,-0.9794,-0.2215,0.4380,-0.6780
0.75500000,-0.2279,0.4456,-1.0304,-0.0508,0.4192,-0.7072
0.76000000,-0.0943,0.5046,-1.0058,0.0041,0.5568,-0.5866
0.76500000,-0.0121,0.6445,-0.9417,0.0730,0.6914,-0.6030
0.77000000,0.0371,0.6731,-0.9681,0.1312,0.6972,-0.5782
0.77500000,0.0741,0.5172,-1.0818,0.1749,0.7734,-0.6933
0.78000000,0.0305,0.3963,-1.0969,0.0750,0.7943,-0.4784
0.78500000,-0.1892,0.3364,-0.9004,-0.2178,0.8395,-0.3176
0.79000000,-0.3578,0.3555,-0.7853,-0.1175,1.0554,-0.3635
0.79500000,-0.1954,0.3620,-0.8427,0.0402,0.9361,-0.3825
0.80000000,-0.0870,0.2530,-0.8472,-0.2068,1.0008,-0.3576
0.80500000,-0.2808,0.1877,-0.7754,-0.4662,1.0309,-0.3822
0.81000000,-0.4382,0.2010,-0.7247,-0.5460,0.9898,-0.4670
0.81500000,-0.3227,0.2485,-0.7278,-0.4093,0.8207,-0.5647
0.82000000,-0.0134,0.3640,-0.8270,-0.2311,0.6616,-0.6197
0.82500000,0.3765,0.4625,-1.0104,0.1145,0.4509,-0.4364
0.83000000,0.5062,0.4072,-0.9684,-0.2510,0.7471,-0.1020
0.83500000,0.1557,0.3365,-1.1265,-0.4399,1.1181,-0.8391
0.84000000,-0.1189,0.3946,-1.7169,-0.3569,1.5406,-1.0172
0.84500000,0.1666,0.5937,-1.8689,0.1388,1.9923,-0.9231
0.85000000,0.7079,0.8466,-1.8538,0.4091,2.0460,-0.9161
0.85500000,0.5762,0.9492,-2.2311,-0.3099,2.0650,-1.0906
0.86000000,0.0244,1.0677,-3.0145,-0.0827,2.2787,-1.9755
0.86500000,-0.0508,1.1016,-3.6930,0.0616,1.9881,-1.7276
0.87000000,-0.6842,0.8610,-3.1280,-1.1481,1.8966,-0.5863
0.87500000,-1.1589,0.4888,-1.1627,-0.0382,1.4180,1.5398
0.88000000,-2.0012,0.4928,0.3226,-3.6166,2.1478,1.3048
0.88500000,-5.6712,1.3850,-0.6694,-6.3911,2.9305,-0.4004
0.89000000,-6.7288,2.4749,-2.4480,-2.6261,3.0881,-1.6063
0.89500000,-3.0206,2.9415,-2.4776,-0.8390,3.0781,-0.7921
0.90000000,-1.0379,2.5957,-1.2444,-1.4355,2.3496,-0.1283
0.90500000,-1.3252,1.7562,-0.3063,-1.2942,1.8127,-0.0185
0.91000000,-1.1022,0.9529,-0.2561,-0.8793,1.5335,-0.3988
0.91500000,-0.6606,0.5146,-1.2499,-0.5130,1.6993,-1.7263
0.92000000,-0.4611,0.5328,-2.8702,-0.4111,1.8746,-2.5457
0.92500000,-0.3433,0.7105,-3.9143,-0.3124,1.9099,-2.7225
0.93000000,-0.2203,0.7891,-4.2287,-0.2674,1.8200,-2.7625
0.93500000,-0.1336,0.7903,-4.3037,-0.2725,1.7548,-2.6367
0.94000000,-0.0518,0.8001,-4.1482,-0.1840,1.6648,-2.3262
0.94500000,0.1369,0.7891,-3.8083,0.0062,1.5449,-2.0277
0.95000000,0.4026,0.7281,-3.4417,0.1967,1.4651,-1.7135
0.95500000,0.6423,0.6730,-3.1262,0.3382,1.4804,-1.4736
0.96000000,0.7973,0.6971,-2.9521,0.3873,1.5870,-1.3063
0.96500000,0.8776,0.7959,-2.9869,0.4341,1.6558,-1.3667
0.97000000,0.9413,0.9095,-3.2006,0.5096,1.6903,-1.5238
0.97500000,0.9995,1.0337,-3.4906,0.5844,1.7268,-1.6752
0.98000000,1.0202,1.1944,-3.7300,0.6117,1.7643,-1.7520
0.98500000,1.0160,1.3718,-3.8821,0.6521,1.7747,-1.8159
0.99000000,1.0242,1.5404,-4.0000,0.6819,1.7780,-1.8960
0.99500000,1.0545,1.7547,-3.9988,0.7347,1.8757,-1.7610
1.00000000,1.1017,2.0294,-3.7440,0.7598,1.9386,-1.5163
1.00500000,1.1577,2.2523,-3.3458,0.7213,1.8178,-1.4268
1.01000000,1.2254,2.3702,-2.9859,0.6809,1.7636,-1.3533
1.01500000,1.2942,2.4143,-2.7315,0.6287,1.6697,-1.3635
1.02000000,1.3515,2.4004,-2.5602,0.6034,1.5350,-1.3996
1.02500000,1.4058,2.3330,-2.3940,0.6236,1.3550,-1.4022
1.03000000,1.4625,2.2187,-2.1618,0.6912,1.1565,-1.3356
1.03500000,1.5290,2.1030,-1.8654,0.8050,1.0195,-1.2573
1.04000000,1.5757,2.0383,-1.6039,0.8681,0.9210,-1.2693
1.04500000,1.5482,1.9992,-1.4633,0.8933,0.8007,-1.5027
1.05000000,1.4565,1.9283,-1.4409,0.9308,0.5134,-1.6505
1.05500000,1.3417,1.7950,-1.4833,0.9160,0.2589,-1.7977
1.06000000,1.2168,1.5874,-1.5416,0.9029,-0.0448,-1.9269
1.06500000,1.0989,1.3365,-1.6031,0.9116,-0.3356,-2.0226
1.07000000,0.9950,1.1009,-1.6906,0.9134,-0.5969,-2.1407
1.07500000,0.8823,0.9240,-1.8570,0.8953,-0.7614,-2.3175
1.08000000,0.7421,0.8114,-2.0936,0.8369,-0.8310,-2.4799
1.08500000,0.5788,0.7369,-2.2967,0.7578,-0.8704,-2.5516
1.09000000,0.4120,0.6755,-2.3947,0.6889,-0.9197,-2.4989
1.09500000,0.2491,0.5964,-2.3838,0.5982,-0.9971,-2.3950
1.10000000,0.0510,0.4962,-2.2821,0.4496,-1.0655,-2.2471
1.10500000,-0.1817,0.4447,-2.1598,0.3449,-1.0430,-2.1480
1.11000000,-0.3665,0.4907,-2.0898,0.2967,-0.9750,-2.1027
1.11500000,-0.4879,0.5776,-2.0808,0.2528,-0.9251,-2.1111
1.12000000,-0.6002,0.6450,-2.1457,0.1894,-0.8880,-2.2042
1.12500000,-0.7308,0.7059,-2.2716,0.1208,-0.8340,-2.3263
1.13000000,-0.8593,0.7679,-2.3870,0.1039,-0.8016,-2.4135
1.13500000,-0.9436,0.7849,-2.4729,0.1023,-0.8311,-2.5042
1.14000000,-0.9870,0.7467,-2.5582,0.1125,-0.8629,-2.5996
1.14500000,-1.0240,0.6959,-2.6501,0.1261,-0.8986,-2.7016
1.15000000,-1.0786,0.6345,-2.7630,0.1247,-0.9543,-2.8815
1.15500000,-1.1922,0.5905,-2.9827,0.0785,-0.9386,-3.1808
1.16000000,-1.3483,0.6108,-3.3032,0.0241,-0.9028,-3.4428
1.16500000,-1.5002,0.6865,-3.5663,-0.0835,-0.8143,-3.6383
1.17000000,-1.7039,0.7943,-3.7519,-0.2846,-0.7396,-3.8529
1.17500000,-1.9744,0.8922,-3.9222,-0.5243,-0.6812,-4.0657
1.18000000,-2.2615,0.9073,-4.0334,-0.8148,-0.7491,-4.1628
1.18500000,-2.5479,0.7442,-4.0367,-1.1146,-0.9764,-4.1324
1.19000000,-2.8190,0.4029,-3.9463,-1.4568,-1.2673,-4.0471
1.19500000,-3.0920,-0.0164,-3.7948,-1.7066,-1.5780,-3.9200
1.20000000,-3.3882,-0.4599,-3.5960,-1.9303,-1.9011,-3.7067
1.20500000,-3.6923,-0.8800,-3.3904,-2.1369,-2.1602,-3.4318
1.21000000,-4.0707,-1.1851,-3.2897,-2.4692,-2.2961,-3.2498
1.21500000,-4.6011,-1.2880,-3.2831,-2.8761,-2.2497,-3.0052
1.22000000,-5.2186,-1.1799,-3.1419,-3.3277,-2.1028,-2.5643
1.22500000,-5.8435,-1.0075,-2.6798,-3.8005,-2.0337,-1.8947
1.23000000,-6.4797,-0.9631,-1.8999,-4.3534,-2.1115,-0.9950
1.23500000,-7.0959,-1.0815,-0.9015,-4.8669,-2.1763,-0.1389
1.24000000,-7.6195,-1.2230,0.3794,-5.2724,-1.9594,1.0471
1.24500000,-7.9470,-1.1927,1.6262,-5.3870,-1.4821,1.5450
1.25000000,-7.9487,-0.9209,2.1283,-5.2884,-0.8884,1.4411
1.25500000,-7.6965,-0.5275,2.0399,-5.1057,-0.3247,1.2695
1.26000000,-7.3363,-0.1660,1.9446,-4.8559,0.1484,1.1589
1.26500000,-6.9363,0.0175,1.9246,-4.6321,0.3582,0.9746
1.27000000,-6.5957,-0.1446,1.8262,-4.4636,0.2566,0.5188
1.27500000,-6.5373,-1.0342,2.1630,-4.6937,-0.4246,1.4120
1.28000000,-7.2113,-3.1620,3.5656,-5.7344,-2.3497,3.0471
1.28500000,-6.8419,-5.5911,5.0199,-2.9595,-3.3444,4.1484
1.29000000,-5.0645,-4.7918,3.5058,-3.4023,0.4013,0.7258
1.29500000,-2.9222,-0.0581,-2.2734,-0.5996,3.9834,-4.2705
1.30000000,-0.1727,3.6413,-6.7349,-0.4685,4.3577,-3.4856
1.30500000,-0.1936,6.4859,-6.4837,-3.1866,8.7795,-3.2237
1.31000000,-4.7786,8.4200,-8.4888,-8.3191,5.6966,-8.9916
1.31500000,-8.4718,2.7007,-13.8329,-6.0981,-3.9177,-10.9352
1.32000000,-4.2965,-5.9010,-10.9300,1.6874,-5.9275,-0.6912
1.32500000,1.2238,-6.6127,-1.7696,-0.5024,-0.4280,1.3565
1.33000000,-0.1919,-2.1210,0.1142,-1.9441,1.2300,-1.1801
1.33500000,-1.5738,0.1746,-2.1865,-0.3052,0.7206,-1.1852
1.34000000,-0.0645,0.4131,-1.8468,0.2518,0.5162,-0.5259
1.34500000,0.4292,0.2437,-1.0645,-0.0906,0.0183,-0.6676
1.35000000,-0.0792,0.0523,-1.0102,-0.5900,0.5919,-0.5987
1.35500000,-0.7657,0.4800,-1.1465,-1.0983,0.8699,-0.8188
1.36000000,-1.2670,0.6630,-1.2094,-1.0559,0.4910,-0.5952
1.36500000,-1.2384,0.4426,-1.0130,-0.7657,0.3122,-0.5169
1.37000000,-0.9213,0.3562,-0.9079,-0.5639,0.3138,-0.6390
1.37500000,-0.6087,0.4105,-1.0139,-0.2790,0.4383,-0.6733
1.38000000,-0.2642,0.5981,-1.0303,-0.0128,0.5487,-0.6299
1.38500000,-0.0284,0.6977,-0.9651,0.0081,0.4103,-0.5551
1.39000000,-0.0496,0.6012,-0.9258,-0.0774,0.2647,-0.5962
1.39500000,-0.1039,0.5469,-0.9405,0.0005,0.3324,-0.5963
1.40000000,-0.0878,0.5306,-0.9253,-0.0612,0.2853,-0.5749
1.40500000,-0.1382,0.4295,-0.9475,-0.0899,0.3190,-0.6743
1.41000000,-0.1756,0.2899,-1.0503,-0.0519,0.3243,-0.6655
1.41500000,-0.2177,0.2541,-1.0514,-0.1429,0.5615,-0.5312
1.42000000,-0.2871,0.5448,-0.8988,-0.1121,0.9534,-0.3825
1.42500000,-0.2007,0.7129,-0.8249,0.0494,0.6173,-0.4943
1.43000000,-0.0982,0.3531,-0.9321,-0.1618,0.3384,-0.5214
1.43500000,-0.1081,0.0982,-0.9813,-0.1956,0.5087,-0.4106
1.44000000,-0.0823,0.2677,-0.8979,-0.1873,0.8521,-0.3424
1.44500000,-0.2202,0.5989,-0.8449,-0.5453,1.2298,-0.4124
1.45000000,-0.4240,0.7246,-0.8656,-0.3032,1.2097,-0.4887
1.45500000,-0.2539,0.3191,-0.8754,-0.0979,0.6587,-0.4869
1.46000000,-0.0625,-0.0761,-0.8329,-0.3929,0.7383,-0.5976
1.46500000,-0.1339,0.0739,-0.7638,-0.5188,0.8394,-0.5298
1.47000000,-0.2389,0.3045,-0.7429,-0.6139,0.5939,-0.5215
1.47500000,-0.0812,0.3973,-0.8580,-0.1150,0.4327,-0.5753
1.48000000,0.1753,0.3216,-1.0175,-0.2178,0.2453,-0.5100
1.48500000,0.1128,0.1316,-1.0804,-0.2491,0.7409,-0.5245
1.49000000,0.1282,0.2555,-1.2448,0.0342,1.0875,-0.8670
1.49500000,0.4002,0.4336,-1.5577,0.2967,1.3104,-0.8424
1.50000000,0.6049,0.4858,-1.9045,0.3912,1.8220,-1.1652
1.50500000,0.7311,0.6475,-2.4474,0.6421,1.9391,-1.5793
1.51000000,0.5160,0.8116,-2.8591,0.1662,2.0210,-1.4770
1.51500000,-0.0086,0.9851,-3.2714,0.1053,2.2167,-2.2394
1.52000000,-0.4496,0.9572,-3.7767,-0.0116,1.8300,-2.1226
1.52500000,-0.7909,0.4109,-3.1179,0.2173,1.2933,-0.7247
1.53000000,-1.4023,0.0741,-1.4285,-0.8738,1.6114,0.7660
1.53500000,-4.9045,1.1419,-0.6968,-6.8302,3.3283,0.4611
1.54000000,-8.0946,2.9214,-1.7158,-4.3120,3.8248,-1.0299
1.54500000,-4.7242,3.5042,-2.4701,0.0247,2.5720,-0.6880
1.55000000,-0.8778,2.9485,-1.2919,-1.1440,2.4785,0.4008
1.55500000,-1.2552,2.1901,0.3363,-1.7472,1.7839,0.7977
1.56000000,-1.6412,1.3304,0.8316,-1.2878,1.3739,0.4797
1.56500000,-1.0837,0.5765,0.3359,-0.9469,1.2320,-0.2072
1.57000000,-0.7707,0.2665,-0.6251,-0.7075,1.4331,-0.9967
1.57500000,-0.6202,0.3302,-1.6966,-0.5099,1.6782,-1.6883
1.58000000,-0.4602,0.4637,-2.6445,-0.3621,1.7739,-2.1808
1.58500000,-0.2662,0.5124,-3.3697,-0.2288,1.7488,-2.5104
1.59000000,-0.0724,0.4539,-3.8799,-0.1717,1.6263,-2.6848
1.59500000,0.0149,0.3109,-4.2144,-0.2397,1.4324,-2.6235
1.60000000,0.0076,0.1728,-4.3319,-0.1840,1.3775,-2.4267
1.60500000,0.1034,0.0827,-4.0951,0.0325,1.0208,-1.8975
1.61000000,0.4005,-0.0098,-3.6100,0.3345,0.9378,-1.4197
1.61500000,0.7253,-0.0299,-3.2401,0.4876,1.0375,-1.1434
1.62000000,0.9052,0.1545,-3.1473,0.5465,1.2823,-1.0547
1.62500000,1.0042,0.6019,-3.2924,0.6194,1.7451,-1.1515
1.63000000,1.0881,1.1740,-3.5431,0.6358,1.9939,-1.2342
1.63500000,1.1090,1.5538,-3.6880,0.6263,1.9124,-1.2266
1.64000000,1.0929,1.7182,-3.6624,0.6526,1.8653,-1.1392
1.64500000,1.0863,1.8348,-3.5396,0.6599,1.8316,-1.0221
1.65000000,1.0638,1.9572,-3.3650,0.6405,1.8156,-0.8767
1.65500000,1.0267,2.0860,-3.1357,0.6126,1.8256,-0.7089
1.66000000,0.9881,2.2080,-2.8860,0.5655,1.8654,-0.7132
1.66500000,0.9603,2.3307,-2.7304,0.5499,1.8819,-0.8205
1.67000000,0.9885,2.4591,-2.6975,0.6140,1.9295,-0.9845
1.67500000,1.0619,2.6339,-2.6676,0.6599,2.0560,-1.1337
1.68000000,1.1796,2.8565,-2.4837,0.7452,2.0922,-1.0972
1.68500000,1.3437,2.9566,-2.1782,0.7621,1.9463,-1.1546
1.69000000,1.4610,2.8405,-1.9692,0.7369,1.7125,-1.3037
1.69500000,1.5254,2.6074,-1.8665,0.7722,1.4455,-1.4340
1.70000000,1.5852,2.3485,-1.7923,0.8254,1.1946,-1.5937
1.70500000,1.6231,2.1193,-1.7894,0.9183,0.9911,-1.7875
1.71000000,1.6419,1.9356,-1.8595,1.1746,0.6365,-2.1195
1.71500000,1.6022,1.7506,-1.9949,1.1980,0.3514,-2.3561
1.72000000,1.4239,1.5318,-2.1948,1.0916,0.0126,-2.5832
1.72500000,1.1521,1.2719,-2.3315,0.9718,-0.3896,-2.6072
1.73000000,0.9214,0.9725,-2.2634,0.8959,-0.7845,-2.4611
1.73500000,0.7742,0.6635,-2.0574,0.8309,-1.0401,-2.2802
1.74000000,0.6520,0.3909,-1.9150,0.7424,-1.2006,-2.2228
1.74500000,0.5012,0.1976,-1.9446,0.6348,-1.2898,-2.2244
1.75000000,0.3292,0.1115,-2.0832,0.5965,-1.2976,-2.1455
1.75500000,0.1725,0.1351,-2.2370,0.5440,-1.2358,-2.1513
1.76000000,0.0124,0.2301,-2.3555,0.4489,-1.1569,-2.1284
1.76500000,-0.1764,0.3466,-2.4314,0.3562,-1.0750,-2.1140
1.77000000,-0.3754,0.4649,-2.4608,0.2482,-0.9922,-2.0557
1.77500000,-0.5730,0.5981,-2.4196,0.1525,-0.8799,-1.9837
1.78000000,-0.7547,0.7733,-2.3106,0.0601,-0.7283,-1.8784
1.78500000,-0.9270,0.9941,-2.1678,-0.0631,-0.5561,-1.8182
1.79000000,-1.0797,1.2168,-2.0528,-0.1355,-0.4195,-1.8234
1.79500000,-1.1656,1.3862,-1.9891,-0.1455,-0.3309,-1.9733
1.80000000,-1.1971,1.4943,-2.0224,-0.0818,-0.2712,-2.1971
1.80500000,-1.2275,1.5588,-2.2120,-0.0395,-0.2441,-2.5043
1.81000000,-1.2977,1.5625,-2.4952,-0.0158,-0.2825,-2.8327
1.81500000,-1.3979,1.5026,-2.7610,0.0101,-0.3345,-3.0916
1.82000000,-1.4997,1.4019,-2.9454,0.0125,-0.4278,-3.2948
1.82500000,-1.6055,1.2597,-3.0567,-0.0029,-0.5421,-3.4516
1.83000000,-1.7315,1.1006,-3.1588,-0.0739,-0.6449,-3.5746
1.83500000,-1.9021,0.9747,-3.3235,-0.2063,-0.7036,-3.7383
1.84000000,-2.1144,0.8790,-3.5435,-0.3892,-0.7782,-3.8908
1.84500000,-2.3395,0.7459,-3.7437,-0.6068,-0.9155,-4.0129
1.85000000,-2.5730,0.5241,-3.9194,-0.8673,-1.1196,-4.1530
1.85500000,-2.8334,0.2231,-4.1163,-1.2253,-1.3589,-4.3234
1.86000000,-3.1257,-0.1374,-4.2917,-1.4891,-1.6453,-4.3947
1.86500000,-3.4295,-0.5698,-4.3301,-1.7154,-1.9959,-4.3266
1.87000000,-3.8844,-1.1445,-4.1068,-2.2197,-2.5224,-3.7803
1.87500000,-4.5547,-1.6692,-3.6372,-2.6841,-2.6648,-3.1985
1.88000000,-5.1850,-1.7581,-3.1014,-3.1018,-2.4934,-2.6143
1.88500000,-5.7324,-1.5158,-2.5200,-3.6369,-2.3088,-1.9699
1.89000000,-6.2981,-1.3010,-1.7989,-4.2015,-2.2415,-1.2464
1.89500000,-6.7933,-1.2520,-0.9376,-4.6748,-2.3021,-0.4835
1.90000000,-7.1408,-1.3810,0.0006,-5.0114,-2.4090,0.2686
1.90500000,-7.3405,-1.5967,0.8809,-5.1841,-2.3227,0.8719
1.91000000,-7.4128,-1.6859,1.5150,-5.2026,-1.9844,1.2149
1.91500000,-7.3850,-1.4642,1.8095,-5.0713,-1.3936,1.3653
1.92000000,-7.2665,-0.9473,1.8622,-4.9426,-0.4407,1.2861
1.92500000,-7.0291,-0.3290,1.8342,-4.7600,0.1891,1.1445
1.93000000,-6.6578,0.1067,1.8070,-4.5209,0.5115,0.9538
1.93500000,-6.2365,0.1042,1.7663,-4.3026,0.4399,0.6989
1.94000000,-5.8868,-0.3759,1.6622,-4.1011,0.0987,0.4237
1.94500000,-5.7892,-1.5437,2.0686,-4.2445,-0.6789,1.5905
1.95000000,-6.0882,-3.3037,3.0614,-4.5152,-1.7796,2.4744
1.95500000,-5.8701,-3.5066,2.3813,-3.2640,0.0449,0.7520
1.96000000,-3.0759,-0.8801,-1.4577,-0.0214,2.5785,-2.7504
1.96500000,0.1161,2.2114,-5.2013,-0.6952,3.9904,-3.0268
1.97000000,-0.5901,6.6380,-6.6765,-3.2797,10.0215,-4.2524
1.97500000,-5.8231,8.7080,-10.2801,-9.8914,4.3629,-10.2199
1.98000000,-9.4768,1.7495,-13.4284,-6.4228,-2.5840,-7.2252
1.98500000,-3.6670,-5.0540,-7.1220,2.4098,-3.9284,2.0118
1.99000000,2.7612,-3.0138,0.4768,0.6260,2.6032,0.4517
1.99500000,0.2437,1.1022,-0.6091,-2.7710,2.0678,-1.6612
2.00000000,-2.7868,0.4870,-2.8459,-1.4345,-0.6015,-1.2754
2.00500000,-1.1966,-0.9661,-2.0500,0.3989,0.0302,-0.7764
2.01000000,0.5357,-0.0884,-1.2544,0.3213,0.5827,-0.6430
2.01500000,0.4541,0.1807,-1.0871,-0.1279,-0.0589,-0.8048
2.02000000,-0.1908,-0.0732,-1.1515,-0.6177,0.6123,-0.7416
2.02500000,-0.7527,0.4475,-1.0743,-0.9122,1.0003,-0.5951
2.03000000,-1.0496,0.7515,-1.0059,-0.8039,0.5570,-0.6919
2.03500000,-0.9468,0.5553,-1.0383,-0.5103,0.4336,-0.6618
2.04000000,-0.6513,0.4858,-1.0102,-0.3314,0.4637,-0.6404
2.04500000,-0.4004,0.6665,-0.9422,-0.1270,0.6370,-0.5877
2.05000000,-0.2138,0.7783,-0.9247,-0.0550,0.3878,-0.6489
2.05500000,-0.1487,0.6137,-0.9371,-0.1050,0.3197,-0.5976
2.06000000,-0.1949,0.5063,-0.8966,-0.1234,0.2865,-0.5630
2.06500000,-0.2191,0.4867,-0.8436,-0.1209,0.2566,-0.5624
2.07000000,-0.1164,0.3625,-0.8522,0.0648,0.1730,-0.6016
2.07500000,-0.0040,0.2499,-0.9613,-0.0282,0.3326,-0.7234
2.08000000,-0.0458,0.2790,-1.1128,-0.0193,0.3949,-0.7777
2.08500000,-0.1173,0.4174,-1.0672,-0.0509,0.5984,-0.5094
2.09000000,-0.1805,0.5688,-0.9125,-0.0969,0.7891,-0.5011
2.09500000,-0.1960,0.5327,-0.9388,-0.0001,0.5970,-0.5407
2.10000000,-0.1133,0.3000,-0.9949,-0.0087,0.4462,-0.5109
2.10500000,-0.0331,0.1057,-0.9593,-0.1095,0.2437,-0.4346
2.11000000,0.0031,0.0577,-0.9090,-0.1958,0.4310,-0.3452
2.11500000,-0.0211,0.2359,-0.8640,-0.3121,0.8823,-0.3994
2.12000000,-0.1852,0.6422,-0.8642,-0.4413,1.5834,-0.5124
2.12500000,-0.2969,0.7732,-0.8478,-0.2551,1.2197,-0.4870
2.13000000,-0.1778,0.3529,-0.7670,-0.2945,0.7668,-0.4577
2.13500000,-0.0847,0.0915,-0.7107,-0.3978,0.8653,-0.5444
2.14000000,-0.0892,0.2791,-0.7986,-0.5134,0.8628,-0.5836
2.14500000,0.0010,0.4833,-0.9705,-0.2290,0.5335,-0.5784
2.15000000,0.0002,0.4047,-1.0659,-0.4938,0.3432,-0.5194
2.15500000,-0.0148,0.3097,-1.2982,-0.0766,1.1523,-1.0234
2.16000000,0.4512,0.4366,-1.5885,0.4523,1.4236,-0.9302
2.16500000,0.9218,0.4383,-1.6052,0.4137,1.6269,-0.8316
2.17000000,0.7384,0.5258,-1.8988,0.0991,1.9593,-1.1824
2.17500000,0.2497,0.8473,-2.7930,0.0113,2.1043,-1.9548
2.18000000,-0.1135,1.2158,-3.6030,0.0431,2.5192,-2.2422
2.18500000,-0.6098,0.8971,-3.4684,-0.4168,1.2138,-1.3339
2.19000000,-1.5502,-0.0747,-1.8471,-1.5373,1.1815,1.1154
2.19500000,-3.7639,-0.0472,-0.2485,-4.6364,1.7605,1.0844
2.20000000,-6.6315,1.1571,-0.9157,-5.5554,2.7669,-0.8376
2.20500000,-5.6940,2.3953,-2.2823,-1.4466,2.7091,-1.0303
2.21000000,-1.9824,2.5933,-1.7230,-1.0125,2.6590,0.2832
2.21500000,-1.3411,1.9905,-0.1078,-2.1096,2.1140,0.7861
2.22000000,-2.1624,1.3418,0.5351,-1.5585,1.7223,0.3689
2.22500000,-1.5609,0.6996,-0.1122,-0.9136,1.6372,-0.4871
2.23000000,-0.9363,0.4455,-1.2444,-0.7972,1.7790,-1.2808
2.23500000,-0.7889,0.5643,-2.2737,-0.5935,1.8672,-1.8891
2.24000000,-0.5860,0.6651,-3.0665,-0.4145,1.8893,-2.3354
2.24500000,-0.3614,0.6847,-3.7118,-0.4547,1.8760,-2.6763
2.25000000,-0.2896,0.6351,-4.3012,-0.6257,1.7894,-3.0194
2.25500000,-0.2714,0.4879,-4.7969,-0.5867,1.6317,-3.2084
2.26000000,-0.2620,0.3291,-5.0574,-0.5615,1.5847,-3.1277
2.26500000,-0.2119,0.2859,-4.9775,-0.3346,1.6002,-2.8090
2.27000000,0.0331,0.2939,-4.6373,0.0319,1.5170,-2.3959
2.27500000,0.4511,0.3464,-4.1409,0.4390,1.6059,-1.8138
2.28000000,0.8084,0.5566,-3.6745,0.5896,1.7594,-1.3940
2.28500000,0.9339,0.8441,-3.5508,0.5730,1.8943,-1.3987
2.29000000,0.9279,1.1054,-3.7424,0.5658,2.0040,-1.5117
2.29500000,0.9095,1.3545,-4.0444,0.5606,2.0968,-1.6932
2.30000000,0.8636,1.6026,-4.3335,0.5691,2.1606,-1.8058
2.30500000,0.8014,1.8417,-4.5008,0.6004,2.1836,-1.8581
2.31000000,0.7654,2.0914,-4.5316,0.6741,2.2336,-1.8483
2.31500000,0.7831,2.3683,-4.3857,0.7575,2.2842,-1.8044
2.32000000,0.8525,2.6224,-4.0029,0.7266,2.3067,-1.5852
2.32500000,0.9542,2.8223,-3.4776,0.6639,2.1891,-1.3781
2.33000000,1.0809,2.9676,-2.9816,0.6025,2.1851,-1.2784
2.33500000,1.2189,3.0497,-2.6029,0.4979,2.1449,-1.2704
2.34000000,1.3272,3.0386,-2.3633,0.4102,1.9654,-1.3748
2.34500000,1.3949,2.8929,-2.2586,0.3713,1.6978,-1.5403
2.35000000,1.4246,2.6692,-2.2316,0.4027,1.4407,-1.7089
2.35500000,1.4208,2.4930,-2.1580,0.5010,1.2634,-1.7342
2.36000000,1.4261,2.4204,-1.9367,0.6863,1.1383,-1.6695
2.36500000,1.4562,2.3988,-1.6400,0.8445,1.0097,-1.6330
2.37000000,1.4758,2.3530,-1.4155,0.9682,0.8487,-1.6960
2.37500000,1.4601,2.2126,-1.3355,1.0440,0.5625,-1.9986
2.38000000,1.3626,1.9085,-1.4271,1.0915,0.2653,-2.2333
2.38500000,1.1734,1.4917,-1.6290,1.0458,-0.3892,-2.3980
2.39000000,0.9827,1.0815,-1.8015,1.0367,-0.7615,-2.4641
2.39500000,0.8533,0.7456,-1.8936,1.0435,-0.9615,-2.4586
2.40000000,0.7272,0.5166,-1.9770,0.9462,-1.0705,-2.4815
2.40500000,0.5446,0.3777,-2.1487,0.8241,-1.1447,-2.5810
2.41000000,0.3605,0.2842,-2.4009,0.7254,-1.2007,-2.6637
2.41500000,0.2009,0.1952,-2.5966,0.6226,-1.2823,-2.6215
2.42000000,0.0361,0.0952,-2.6534,0.5416,-1.3496,-2.5082
2.42500000,-0.1213,0.0172,-2.6043,0.4910,-1.3850,-2.3377
2.43000000,-0.2689,-0.0168,-2.4741,0.4256,-1.3939,-2.0551
2.43500000,-0.4683,0.0132,-2.2715,0.2993,-1.3237,-1.8262
2.44000000,-0.7296,0.0819,-2.1173,0.1424,-1.3032,-1.7812
2.44500000,-0.9558,0.1242,-2.1501,0.0552,-1.2787,-1.8650
2.45000000,-1.1243,0.2104,-2.2907,-0.0355,-1.1445,-1.9348
2.45500000,-1.2755,0.4408,-2.3779,-0.1067,-0.9069,-1.9497
2.46000000,-1.3822,0.7591,-2.3738,-0.1394,-0.6872,-1.9640
2.46500000,-1.4225,1.0593,-2.3422,-0.1439,-0.4936,-2.0459
2.47000000,-1.4544,1.3202,-2.3704,-0.2045,-0.3189,-2.2387
2.47500000,-1.5167,1.4799,-2.4951,-0.2363,-0.3101,-2.5349
2.48000000,-1.5707,1.4413,-2.7331,-0.2339,-0.4264,-2.9619
2.48500000,-1.6482,1.2664,-3.0569,-0.2688,-0.5550,-3.5494
2.49000000,-1.8048,1.0665,-3.3501,-0.3186,-0.6941,-3.7705
2.49500000,-2.0147,0.8779,-3.5509,-0.4811,-0.8136,-3.8769
2.50000000,-2.2603,0.6939,-3.6667,-0.7173,-0.9573,-3.9146
2.50500000,-2.5285,0.4777,-3.6966,-0.9944,-1.1347,-3.9060
2.51000000,-2.7830,0.1837,-3.6712,-1.2738,-1.4025,-3.8889
2.51500000,-3.0070,-0.2256,-3.6288,-1.5308,-1.7504,-3.8635
2.52000000,-3.2082,-0.7069,-3.5982,-1.7501,-2.0874,-3.8720
2.52500000,-3.4323,-1.1467,-3.6284,-1.9985,-2.3431,-3.9414
2.53000000,-3.7553,-1.4577,-3.7568,-2.3192,-2.4839,-3.9913
2.53500000,-4.2216,-1.5833,-3.9402,-2.7405,-2.4694,-3.8741
2.54000000,-4.8073,-1.5264,-3.9785,-3.2120,-2.3743,-3.4851
2.54500000,-5.4400,-1.4155,-3.6248,-3.7956,-2.3473,-2.5775
2.55000000,-6.0675,-1.4007,-2.7850,-4.3049,-2.4152,-1.5962
2.55500000,-6.6689,-1.5035,-1.5459,-4.7822,-2.5271,-0.4657
2.56000000,-7.1573,-1.6405,-0.1723,-5.0829,-2.6006,0.5417
2.56500000,-7.4483,-1.7044,0.9324,-5.2776,-2.3974,1.1133
2.57000000,-7.5661,-1.6391,1.4562,-5.3451,-1.9971,1.1910
2.57500000,-7.5485,-1.4788,1.4653,-5.3077,-1.5926,1.0825
2.58000000,-7.4298,-1.2832,1.3431,-5.1821,-1.2269,1.0700
2.58500000,-7.1948,-1.0320,1.3933,-4.9017,-0.7766,1.2022
2.59000000,-6.8056,-0.6533,1.6416,-4.5476,-0.2319,1.2561
2.59500000,-6.3572,-0.2404,1.9120,-4.2765,0.4226,1.1964
2.60000000,-5.9786,-0.0524,2.0094,-4.1189,0.6060,0.9816
2.60500000,-6.2317,-1.1678,2.6465,-5.0954,-1.1245,2.2931
2.61000000,-6.9087,-4.0084,4.5324,-5.0075,-3.0359,4.2084
2.61500000,-6.8117,-4.7468,4.6623,-4.9149,-0.3168,2.2877
2.62000000,-4.5567,-0.9597,-0.6395,-1.6656,3.3586,-3.9548
2.62500000,-1.0957,3.3340,-7.4270,-1.0317,4.9815,-6.2432
2.63000000,-3.3661,1.9472,-12.1496,-8.6110,-1.1531,-10.6002
2.63500000,-6.8440,-3.3052,-10.8860,-2.7854,-3.6986,-1.5490
2.64000000,-1.1186,-3.2626,-2.5645,3.3930,0.7047,1.7362
2.64500000,2.8996,0.1516,0.6226,-0.8202,1.8137,-0.8563
2.65000000,-1.0187,0.2293,-2.2444,-2.6542,0.2797,-1.8168
2.65500000,-2.3541,-0.9036,-2.7286,-0.2472,-0.4225,-0.8625
2.66000000,-0.2085,-0.5056,-1.4998,0.2752,0.5761,-0.5173
2.66500000,0.4234,0.2113,-1.0389,-0.1337,0.2735,-0.8733
2.67000000,-0.0392,0.0457,-1.2495,-0.4024,0.2690,-0.8740
2.67500000,-0.5422,0.0687,-1.3173,-0.9226,0.7115,-0.8641
2.68000000,-1.1462,0.4387,-1.2334,-1.1146,0.4605,-0.7316
2.68500000,-1.2584,0.4329,-1.0811,-0.6739,0.2767,-0.7187
2.69000000,-0.7575,0.3230,-1.0079,-0.2179,0.2373,-0.7206
2.69500000,-0.3218,0.3125,-1.0798,-0.1184,0.3352,-0.7991
2.70000000,-0.1832,0.4504,-1.0861,-0.0243,0.4324,-0.5953
2.70500000,-0.1841,0.6575,-0.9198,-0.1386,0.4478,-0.4713
2.71000000,-0.3166,0.6722,-0.8417,-0.2578,0.3322,-0.5496
2.71500000,-0.4074,0.4813,-0.9222,-0.2219,0.2113,-0.6329
2.72000000,-0.3628,0.3179,-0.9540,-0.1724,0.1834,-0.6215
2.72500000,-0.3294,0.2973,-1.0210,-0.1956,0.2942,-0.8010
2.73000000,-0.2383,0.4159,-1.0273,0.0269,0.5127,-0.5067
2.73500000,-0.0786,0.5688,-0.8679,0.0190,0.6483,-0.4991
2.74000000,0.0098,0.5585,-0.9509,0.1255,0.5426,-0.7261
2.74500000,0.1598,0.2978,-1.1525,0.3182,0.2010,-0.7015
2.75000000,0.2346,0.0544,-1.1444,0.0556,0.2747,-0.6340
2.75500000,0.0267,0.1416,-1.0175,-0.2303,0.5198,-0.3892
2.76000000,-0.1869,0.3234,-0.8764,-0.3187,0.6879,-0.3957
2.76500000,-0.3413,0.4842,-0.8506,-0.4638,1.2031,-0.4681
2.77000000,-0.5083,0.6402,-0.8588,-0.4346,1.2644,-0.4712
2.77500000,-0.4842,0.4782,-0.8181,-0.2832,0.8362,-0.4927
2.78000000,-0.2181,0.1287,-0.7697,-0.1383,0.4621,-0.5244
2.78500000,0.0473,0.0549,-0.7523,-0.1680,0.6493,-0.5651
2.79000000,0.1289,0.2122,-0.7622,-0.2990,0.8340,-0.5377
2.79500000,0.0424,0.3363,-0.7684,-0.4849,0.7036,-0.5197
2.80000000,0.1518,0.5197,-0.8176,-0.0485,0.7590,-0.4478
2.80500000,0.3209,0.6015,-0.9606,-0.3118,0.4196,-0.5196
2.81000000,0.1413,0.5019,-1.2602,-0.2969,0.8161,-0.7623
2.81500000,0.0779,0.4140,-1.6076,-0.1162,1.4387,-0.9671
2.82000000,0.2717,0.2468,-1.6813,-0.0209,1.5098,-0.6351
2.82500000,0.5498,0.3369,-1.7135,0.3747,1.8688,-0.8794
2.83000000,0.7574,0.6769,-2.0758,0.3635,1.9399,-1.0247
2.83500000,0.3471,0.7825,-2.4686,-0.2770,1.9182,-1.1691
2.84000000,-0.1719,1.0504,-3.1974,0.2585,2.5026,-2.1708
2.84500000,-0.0619,1.1725,-3.9026,0.7111,1.8159,-1.8610
2.85000000,-0.1304,0.6531,-2.9403,0.1904,1.6560,0.2070
2.85500000,-1.1678,0.5441,-0.6751,-1.5174,1.9840,2.0046
2.86000000,-5.0066,1.6839,0.1584,-7.3554,3.6521,0.6238
2.86500000,-8.4631,3.4917,-1.4015,-5.1282,4.2503,-1.4416
2.87000000,-5.4602,4.2598,-2.4713,-1.1966,3.4174,-1.4440
2.87500000,-1.5150,3.5500,-1.2462,-1.7518,2.8145,-0.1237
2.88000000,-1.4868,2.0496,0.3884,-1.9822,1.4606,0.2018
2.88500000,-1.6114,0.4101,0.5485,-1.2979,0.9968,-0.5371
2.89000000,-0.9666,-0.2937,-0.5323,-0.8263,1.2546,-1.4858
2.89500000,-0.6440,-0.1141,-1.8311,-0.4939,1.4988,-2.2363
2.90000000,-0.4987,0.1511,-2.8747,-0.2838,1.6034,-2.7166
2.90500000,-0.3418,0.2786,-3.6496,-0.1513,1.6377,-3.0714
2.91000000,-0.1662,0.2895,-4.2519,-0.1510,1.5736,-3.1774
2.91500000,-0.0580,0.1712,-4.6950,-0.2753,1.4142,-3.2788
2.92000000,-0.0382,-0.0355,-4.8830,-0.2566,1.1886,-3.0966
2.92500000,0.0304,-0.2297,-4.7019,-0.0707,0.9265,-2.6176
2.93000000,0.2908,-0.3736,-4.2166,0.2916,0.7498,-2.0290
2.93500000,0.6652,-0.4341,-3.7103,0.5635,0.7648,-1.5742
2.94000000,0.9353,-0.3074,-3.4207,0.6977,0.9888,-1.3066
2.94500000,1.0541,0.0339,-3.3762,0.7228,1.2902,-1.0870
2.95000000,1.0916,0.4725,-3.4826,0.6969,1.4990,-1.1565
2.95500000,1.0798,0.8972,-3.6346,0.6475,1.6775,-1.2575
2.96000000,1.0308,1.2521,-3.7597,0.5867,1.7718,-1.3099
2.96500000,0.9690,1.5165,-3.8293,0.5587,1.8237,-1.3297
2.97000000,0.9251,1.7272,-3.8440,0.5474,1.8444,-1.3052
2.97500000,0.8929,1.9898,-3.7727,0.5230,2.0360,-1.2047
2.98000000,0.8691,2.3442,-3.5888,0.5123,2.2084,-1.1019
2.98500000,0.8738,2.6700,-3.3374,0.4979,2.3182,-1.0376
2.99000000,0.9238,2.8942,-3.0625,0.5024,2.3565,-1.0115
2.99500000,1.0295,3.0222,-2.7875,0.5305,2.3206,-1.2609
3.00000000,1.1560,3.0464,-2.5602,0.3516,2.1188,-1.3823
3.00500000,1.2571,2.9637,-2.4153,0.3406,1.8979,-1.5449
3.01000000,1.3349,2.7831,-2.3092,0.3858,1.6345,-1.6732
3.01500000,1.4043,2.5528,-2.1369,0.4918,1.3726,-1.6794
3.02000000,1.4680,2.3374,-1.8545,0.6272,1.1535,-1.6231
3.02500000,1.5179,2.1708,-1.5689,0.7480,0.9799,-1.6451
3.03000000,1.5411,2.0396,-1.4114,0.8502,0.8127,-1.9024
3.03500000,1.5355,1.8911,-1.4317,0.9460,0.5798,-2.1255
3.04000000,1.4532,1.6614,-1.6512,0.8880,0.1156,-2.4574
3.04500000,1.2082,1.2677,-2.0630,0.7078,-0.4563,-2.8851
3.05000000,0.9061,0.7888,-2.4636,0.6464,-0.9077,-3.0244
3.05500000,0.7258,0.4596,-2.6231,0.6512,-1.1201,-2.9438
3.06000000,0.5941,0.2748,-2.6451,0.5301,-1.2518,-2.8805
3.06500000,0.4063,0.0931,-2.6633,0.3860,-1.3945,-2.7643
3.07000000,0.2209,-0.0881,-2.6249,0.3009,-1.5074,-2.5521
3.07500000,0.0699,-0.2241,-2.5001,0.2171,-1.5785,-2.2837
3.08000000,-0.0910,-0.2898,-2.3320,0.1411,-1.5863,-2.0219
3.08500000,-0.2716,-0.2550,-2.1813,0.0544,-1.5062,-1.7174
3.09000000,-0.5243,-0.0748,-2.0669,-0.0816,-1.2914,-1.5647
3.09500000,-0.8296,0.2135,-1.9973,-0.2035,-1.0895,-1.5081
3.10000000,-1.0443,0.5114,-1.9966,-0.2759,-0.8795,-1.5285
3.10500000,-1.1940,0.8150,-2.0199,-0.3808,-0.6478,-1.5780
3.11000000,-1.3316,1.1371,-2.0115,-0.4431,-0.4192,-1.6509
3.11500000,-1.4048,1.4393,-1.9942,-0.4423,-0.2250,-1.7714
3.12000000,-1.4152,1.7084,-2.0007,-0.3970,-0.0372,-1.9489
3.12500000,-1.4077,1.8836,-2.0913,-0.3416,-0.0134,-2.2701
3.13000000,-1.4131,1.8856,-2.3471,-0.2851,-0.0769,-2.7273
3.13500000,-1.4612,1.8110,-2.7254,-0.2027,-0.0911,-3.3701
3.14000000,-1.5737,1.7380,-3.0988,-0.2749,-0.1749,-3.6596
3.14500000,-1.7379,1.5817,-3.4120,-0.4087,-0.3502,-3.8540
3.15000000,-1.9569,1.3209,-3.6648,-0.6229,-0.5649,-4.0017
3.15500000,-2.2298,1.0218,-3.8602,-0.8750,-0.7743,-4.1209
3.16000000,-2.5220,0.7163,-4.0053,-1.2512,-0.9987,-4.2117
3.16500000,-2.8135,0.3888,-4.0995,-1.5363,-1.2473,-4.2600
3.17000000,-3.0954,0.0181,-4.1525,-1.7935,-1.5374,-4.2913
3.17500000,-3.3899,-0.4091,-4.1539,-2.0636,-1.8694,-4.2481
3.18000000,-3.7197,-0.8649,-4.0323,-2.3310,-2.1826,-4.0081
3.18500000,-4.2423,-1.3151,-3.6356,-2.9729,-2.5141,-3.2773
3.19000000,-5.0172,-1.6376,-2.9416,-3.5583,-2.5825,-2.4590
3.19500000,-5.7222,-1.6467,-2.1497,-3.9915,-2.4336,-1.6386
3.20000000,-6.2536,-1.4527,-1.3076,-4.5034,-2.3201,-0.6188
3.20500000,-6.7215,-1.3728,-0.3570,-4.8748,-2.4114,0.2062
3.21000000,-7.0698,-1.5239,0.5416,-5.1057,-2.5472,0.8011
3.21500000,-7.2644,-1.7468,1.0795,-5.2086,-2.4147,0.9981
3.22000000,-7.3653,-1.7929,1.1213,-5.2535,-2.0187,0.8899
3.22500000,-7.4028,-1.5141,0.9110,-5.2172,-1.4312,0.8234
3.23000000,-7.2902,-0.9626,0.8756,-5.0443,-0.7912,0.9923
3.23500000,-6.9568,-0.4120,1.1819,-4.7823,-0.3764,1.1301
3.24000000,-6.5030,-0.1915,1.6213,-4.6627,-0.4544,1.2433
3.24500000,-6.1264,-0.4095,1.8878,-4.5047,-0.1697,1.1261
3.25000000,-6.1027,-1.4466,2.3266,-4.7031,-1.2230,1.9725
3.25500000,-6.6225,-3.1704,3.1378,-5.1837,-1.7058,2.6243
3.26000000,-6.6683,-3.4930,3.5323,-3.7636,-0.2131,2.9868
3.26500000,-4.5163,-0.8331,1.2577,-0.9665,3.0184,-0.9759
3.27000000,-1.6295,3.1105,-4.0537,-0.9899,5.2063,-4.2707
3.27500000,-1.1347,6.2050,-6.3304,-2.1026,7.0310,-1.9555
3.28000000,-2.8260,10.0860,-6.3333,-4.4406,11.5426,-5.8963
3.28500000,-6.7989,8.5663,-11.5133,-9.4922,0.8870,-11.8509
3.29000000,-7.1135,-1.9884,-10.9897,-0.6363,-6.0195,0.2528
3.29500000,0.6044,-6.0053,-1.2570,4.0562,-0.8925,1.6946
3.30000000,3.0309,-0.5773,1.0417,-1.8385,3.3672,-0.6686
3.30500000,-2.2196,1.8322,-2.2333,-3.1493,1.3979,-1.6741
3.31000000,-2.9145,0.0081,-2.6907,-0.0533,-0.3895,-1.2826
3.31500000,-0.0818,-0.5099,-1.7443,0.3895,0.7664,-0.6036
3.32000000,0.5921,0.3583,-1.0683,-0.0115,0.3854,-0.8021
3.32500000,0.0170,0.2190,-1.1978,-0.4329,0.4092,-0.9455
3.33000000,-0.5902,0.2682,-1.2506,-0.9645,0.9314,-0.7233
3.33500000,-1.0783,0.5447,-1.1250,-0.9254,0.3102,-0.7918
3.34000000,-1.0652,0.2094,-1.1441,-0.6747,0.1278,-0.8286
3.34500000,-0.8249,0.1457,-1.1589,-0.4904,0.3517,-0.8254
3.35000000,-0.5301,0.4865,-1.0786,-0.1129,0.6043,-0.7615
3.35500000,-0.1295,0.7249,-0.9909,0.1591,0.4570,-0.7063
3.36000000,0.0690,0.7009,-0.9619,0.0431,0.3579,-0.6689
3.36500000,0.0070,0.6013,-0.9626,0.0180,0.4512,-0.5864
3.37000000,-0.0043,0.5119,-0.9513,0.0735,0.3387,-0.6007
3.37500000,-0.0079,0.3838,-0.9731,-0.0105,0.2703,-0.6214
3.38000000,-0.1398,0.3164,-0.9785,-0.1249,0.3299,-0.5804
3.38500000,-0.2724,0.3334,-0.9730,-0.1661,0.3881,-0.6153
3.39000000,-0.2765,0.3978,-0.9724,-0.0383,0.5097,-0.4996
3.39500000,-0.0216,0.2374,-1.0298,0.3684,0.0968,-0.6786
3.40000000,0.2062,-0.1406,-1.0975,0.1177,0.0418,-0.5428
3.40500000,0.0551,-0.0445,-0.9737,-0.1917,0.4200,-0.3374
3.41000000,-0.2055,0.7143,-0.7904,-0.4700,1.3717,-0.2171
3.41500000,-0.3262,1.1348,-0.7324,-0.1543,1.3124,-0.4284
3.42000000,-0.2570,0.7030,-0.7889,-0.0576,1.0273,-0.4679
3.42500000,-0.2507,0.2344,-0.8128,-0.2972,0.8074,-0.4340
3.43000000,-0.3327,0.0060,-0.7682,-0.3020,0.6127,-0.5388
3.43500000,-0.1165,0.0465,-0.7322,-0.2089,0.7582,-0.5525
3.44000000,0.2551,0.3507,-0.7476,-0.0599,0.6912,-0.5449
3.44500000,0.0669,0.3783,-0.9198,-0.8055,0.4196,-0.6260
3.45000000,-0.4797,0.2343,-1.1048,-0.6715,0.6061,-0.6200
3.45500000,-0.3598,0.3373,-1.2651,-0.1928,1.1053,-0.9110
3.46000000,0.2325,0.5142,-1.4371,0.2808,1.5324,-0.8621
3.46500000,0.6014,0.4535,-1.4668,0.2663,1.5993,-0.7275
3.47000000,0.6188,0.4654,-1.5959,0.2051,1.9082,-0.8689
3.47500000,0.6716,0.7646,-2.1717,0.6510,2.0602,-1.4547
3.48000000,0.5829,0.8829,-2.7603,0.0384,1.9252,-1.3927
3.48500000,-0.1453,0.8430,-2.9115,-0.1585,2.0555,-1.5387
3.49000000,-1.0864,0.6121,-2.7251,-0.7371,1.4350,-1.0516
3.49500000,-1.7989,0.1661,-1.5095,-1.0028,1.4489,1.1184
3.50000000,-3.9818,0.6579,-0.1600,-5.1514,2.6196,1.0874
3.50500000,-6.4184,2.2516,-0.9341,-4.0461,3.5377,-0.8698
3.51000000,-4.3089,3.1779,-2.0699,-0.5764,2.7071,-0.6477
3.51500000,-1.2775,2.8036,-1.2375,-1.5151,2.9506,0.3077
3.52000000,-1.7483,2.2377,0.1095,-2.3012,2.3706,0.5509
3.52500000,-2.1705,1.5835,0.5816,-1.4116,1.5088,0.2988
3.53000000,-1.2324,0.6840,0.2997,-0.8795,1.2545,-0.3571
3.53500000,-0.7154,0.1992,-0.5694,-0.8751,1.4913,-1.2643
3.54000000,-0.7167,0.2034,-1.7275,-0.7425,1.6225,-2.0473
3.54500000,-0.5811,0.2696,-2.7716,-0.5084,1.5857,-2.5905
3.55000000,-0.2679,0.1989,-3.5747,-0.3592,1.4786,-3.0018
3.55500000,-0.0376,0.0408,-4.2586,-0.2878,1.3449,-3.3649
3.56000000,0.0544,-0.1616,-4.8519,-0.2350,1.1698,-3.5653
3.56500000,0.0926,-0.3898,-5.1982,-0.1223,0.9935,-3.4679
3.57000000,0.1608,-0.5626,-5.1537,0.0645,0.7970,-3.0311
3.57500000,0.3278,-0.6134,-4.7401,0.3366,0.6548,-2.3947
3.58000000,0.6044,-0.5454,-4.1641,0.6232,0.5973,-1.5417
3.58500000,0.8495,-0.3563,-3.6679,0.6663,0.7648,-1.0921
3.59000000,0.9204,-0.0336,-3.3948,0.6069,0.9964,-0.9608
3.59500000,0.9067,0.3802,-3.3405,0.5884,1.2519,-0.9865
3.60000000,0.8915,0.8959,-3.3723,0.5287,1.6440,-1.0011
3.60500000,0.8216,1.4240,-3.3993,0.4431,1.8209,-1.0174
3.61000000,0.7204,1.7318,-3.4149,0.4107,1.8317,-1.0103
3.61500000,0.6607,1.9032,-3.3957,0.4299,1.9134,-0.9616
3.62000000,0.6178,2.1707,-3.3288,0.3989,2.0483,-0.8897
3.62500000,0.5485,2.5313,-3.2498,0.3088,2.2480,-0.8498
3.63000000,0.5185,2.8720,-3.1692,0.2808,2.3768,-0.8536
3.63500000,0.5909,3.1280,-3.0230,0.2957,2.4412,-0.8944
3.64000000,0.7280,3.3023,-2.7711,0.3070,2.4538,-0.9210
3.64500000,0.8848,3.4076,-2.4799,0.3106,2.4195,-0.9972
3.65000000,1.0245,3.4078,-2.2554,0.2642,2.2747,-1.1510
3.65500000,1.1151,3.2468,-2.1197,0.2392,1.9884,-1.3248
3.66000000,1.1888,2.9563,-1.9773,0.3310,1.6873,-1.5998
3.66500000,1.2814,2.6444,-1.7363,0.5898,1.4090,-1.5444
3.67000000,1.3743,2.3916,-1.4681,0.7818,1.1683,-1.5521
3.67500000,1.4297,2.2334,-1.3250,0.9187,1.0380,-1.6777
3.68000000,1.4223,2.1313,-1.3488,0.9788,0.8640,-1.8854
3.68500000,1.3533,1.9948,-1.5156,0.9845,0.6149,-2.1694
3.69000000,1.1923,1.7693,-1.7781,0.8624,0.2500,-2.4402
3.69500000,0.9673,1.4636,-1.9968,0.7966,-0.1593,-2.5462
3.70000000,0.8147,1.1272,-2.0488,0.8023,-0.5709,-2.4861
3.70500000,0.7343,0.8211,-2.0226,0.7831,-0.8755,-2.4723
3.71000000,0.6257,0.6130,-2.0917,0.7190,-0.9887,-2.5307
3.71500000,0.4726,0.5038,-2.2360,0.6585,-1.0446,-2.4640
3.72000000,0.3104,0.4370,-2.3243,0.5839,-1.0852,-2.3882
3.72500000,0.1676,0.3786,-2.3172,0.5264,-1.1336,-2.2588
3.73000000,-0.0199,0.3144,-2.2423,0.3546,-1.1843,-2.0931
3.73500000,-0.2881,0.2662,-2.1450,0.2228,-1.1953,-1.9561
3.74000000,-0.5130,0.2699,-2.0650,0.1836,-1.1656,-1.8375
3.74500000,-0.6650,0.3397,-1.9915,0.1204,-1.0804,-1.7184
3.75000000,-0.8252,0.4751,-1.9218,0.0413,-0.9595,-1.6433
3.75500000,-0.9925,0.6615,-1.9070,-0.0438,-0.8068,-1.6645
3.76000000,-1.1656,0.8937,-1.9781,-0.1638,-0.6159,-1.7817
3.76500000,-1.3206,1.1535,-2.0774,-0.2195,-0.4349,-1.8941
3.77000000,-1.3883,1.4057,-2.1539,-0.2101,-0.2596,-2.0441
3.77500000,-1.4325,1.6454,-2.2345,-0.2647,-0.0903,-2.2297
3.78000000,-1.5236,1.8423,-2.3036,-0.2773,0.0044,-2.4043
3.78500000,-1.5910,1.9118,-2.3533,-0.2309,-0.0321,-2.6380
3.79000000,-1.6433,1.8359,-2.4716,-0.2363,-0.1254,-2.9573
3.79500000,-1.7329,1.6518,-2.6838,-0.2203,-0.3101,-3.3089
3.80000000,-1.8372,1.3621,-2.9083,-0.1783,-0.5618,-3.4357
3.80500000,-1.9641,1.0365,-3.0787,-0.2603,-0.7596,-3.5160
3.81000000,-2.1517,0.7658,-3.2226,-0.4622,-0.9240,-3.6442
3.81500000,-2.4087,0.5464,-3.4325,-0.7377,-1.0602,-3.8543
3.82000000,-2.6834,0.3189,-3.6818,-1.0174,-1.2595,-4.0019
3.82500000,-2.9737,-0.1498,-3.8948,-1.3742,-1.8495,-4.1624
3.83000000,-3.3020,-0.8945,-4.0828,-1.6734,-2.3467,-4.2808
3.83500000,-3.6204,-1.5330,-4.2029,-1.9341,-2.6555,-4.3056
3.84000000,-3.9740,-1.9576,-4.1894,-2.2878,-2.9280,-3.9349
3.84500000,-4.4416,-2.3100,-3.9780,-2.7119,-3.1587,-3.3749
3.85000000,-4.9990,-2.5328,-3.4944,-3.2008,-3.1990,-2.6176
3.85500000,-5.5854,-2.4918,-2.8037,-3.7441,-3.0259,-1.8340
3.86000000,-6.1620,-2.2296,-2.0391,-4.3282,-2.8056,-1.0827
3.86500000,-6.7015,-1.9828,-1.2131,-4.8733,-2.7346,-0.2953
3.87000000,-7.0938,-1.9420,-0.2986,-5.1929,-2.8282,0.4909
3.87500000,-7.2628,-2.0891,0.6053,-5.3413,-2.8759,1.1647
3.88000000,-7.2858,-2.2428,1.3169,-5.3339,-2.6636,1.6086
3.88500000,-7.2473,-2.1846,1.7164,-5.2524,-2.1992,1.8991
3.89000000,-7.1606,-1.7981,1.8268,-4.9912,-1.2807,1.8754
3.89500000,-6.9589,-1.1417,1.7797,-4.7415,-0.5095,1.7451
3.90000000,-6.5966,-0.4265,1.6995,-4.4608,0.1441,1.5383
3.90500000,-6.1666,0.0682,1.6297,-4.2480,0.4816,1.2767
3.91000000,-5.7860,0.1481,1.5937,-4.0650,0.5054,1.0530
3.91500000,-5.6319,-0.2977,1.9369,-4.2310,0.1336,1.5531
3.92000000,-6.6854,-2.5308,3.9615,-6.3111,-2.8269,4.6240
3.92500000,-7.4140,-4.0755,4.1596,-5.0124,-0.1568,1.0842
3.93000000,-4.6030,-0.0962,-2.4046,-1.9246,4.9146,-5.5827
3.93500000,-0.8577,5.1106,-9.0937,-1.1909,5.9642,-6.1821
3.94000000,-1.1129,6.9238,-11.6320,-4.1892,6.7047,-8.9248
3.94500000,-1.5342,4.7508,-9.3440,0.2528,-0.0266,-0.8166
3.95000000,1.9336,-0.3825,-2.3098,2.4529,-2.3787,0.7986
3.95500000,2.0944,-2.6824,-0.4956,-1.7409,-0.3093,-1.8097
3.96000000,-1.8121,-1.5980,-2.7909,-2.5948,0.0880,-1.4193
3.96500000,-2.2953,-0.6173,-2.2049,-0.5649,-0.1611,-0.6911
3.97000000,-0.3525,-0.3184,-1.2326,-0.0357,0.2114,-0.7750
3.97500000,0.1768,-0.2053,-1.3715,-0.3485,0.1314,-1.1611
3.98000000,-0.2951,0.0642,-1.5787,-0.6172,0.5792,-0.9698
3.98500000,-0.5760,0.4458,-1.3498,-0.5226,0.6636,-0.7638
3.99000000,-0.4114,0.4314,-1.1653,-0.2148,0.2336,-0.9064
3.99500000,-0.2313,0.1878,-1.2596,-0.3221,0.4365,-0.9684
4.00000000,-0.4284,0.3468,-1.2353,-0.5023,0.6465,-0.7605
4.00500000,-0.6243,0.5825,-1.0195,-0.4043,0.5590,-0.5991
4.01000000,-0.5495,0.6679,-0.8641,-0.2757,0.5477,-0.5599
4.01500000,-0.3759,0.5088,-0.9244,-0.0967,0.2144,-0.7916
4.02000000,-0.2616,0.2053,-1.1207,-0.0694,0.0995,-0.9183
4.02500000,-0.1978,0.1364,-1.1520,0.0751,0.1658,-0.7865
4.03000000,-0.0583,0.2560,-1.0222,0.2130,0.4180,-0.6893
4.03500000,0.0334,0.4667,-0.9011,0.1381,0.7458,-0.5211
4.04000000,0.0133,0.6002,-0.8832,0.1609,0.6727,-0.6766
4.04500000,-0.0798,0.4833,-0.9888,-0.0059,0.6870,-0.6197
4.05000000,-0.2472,0.4348,-0.9798,-0.0195,0.9395,-0.4850
4.05500000,-0.2450,0.4679,-0.8986,0.1136,0.8589,-0.4808
4.06000000,-0.1136,0.1413,-0.9545,-0.1869,0.2337,-0.5708
4.06500000,-0.0818,-0.1560,-0.9610,-0.2880,0.5171,-0.3684
4.07000000,-0.1716,0.2783,-0.8175,-0.4016,1.2579,-0.4583
4.07500000,-0.1988,0.6039,-0.7925,-0.1661,0.8759,-0.6362
4.08000000,-0.0244,0.3196,-0.8492,-0.1378,0.7306,-0.6462
4.08500000,0.0366,0.2634,-0.7741,-0.3305,0.9268,-0.5781
4.09000000,-0.0243,0.3511,-0.7176,-0.3230,0.5291,-0.4793
4.09500000,-0.0142,0.3427,-0.8571,-0.3615,0.6699,-0.6291
4.10000000,-0.0095,0.3499,-0.9806,-0.2309,0.5156,-0.4603
4.10500000,-0.0002,0.2530,-0.9151,-0.1848,0.8859,-0.5057
4.11000000,0.1905,0.2352,-1.1238,0.2912,0.9692,-0.9766
4.11500000,0.6027,0.2666,-1.5274,0.5561,1.3132,-0.8884
4.12000000,0.6378,0.2361,-1.4873,0.1302,1.5877,-0.6308
4.12500000,0.4281,0.4945,-1.6611,0.3183,2.0561,-1.3231
4.13000000,0.4589,0.8759,-2.2324,0.3077,2.0436,-1.3241
4.13500000,0.2328,0.9975,-2.5337,-0.1619,2.1610,-1.6682
4.14000000,0.0261,1.2338,-3.1074,0.0095,2.5160,-2.4954
4.14500000,-0.0823,1.5386,-3.5923,-0.4638,2.5074,-2.3508
4.15000000,-0.6667,1.4981,-3.0772,-1.2309,2.3534,-1.5635
4.15500000,-0.5651,0.9038,-1.7507,-0.5386,1.4298,0.3372
4.16000000,-2.1064,0.6138,-0.6889,-5.6479,2.3172,0.0992
4.16500000,-6.2211,1.6891,-1.5650,-6.2151,2.8591,-2.1573
4.17000000,-5.8084,2.6326,-2.9067,-1.7070,2.4355,-1.9836
4.17500000,-1.8728,2.3784,-1.9884,-1.0494,2.3722,-0.3358
4.18000000,-0.8942,1.7582,-0.0657,-1.6303,1.7453,0.3592
4.18500000,-1.2685,1.0482,0.6700,-1.4205,1.3116,0.1433
4.19000000,-0.9383,0.2787,0.2366,-1.1149,0.9875,-0.4273
4.19500000,-0.5740,-0.2739,-0.9445,-0.6997,1.0072,-1.6490
4.20000000,-0.2864,-0.4707,-2.4748,-0.1756,1.0683,-2.3605
4.20500000,-0.0512,-0.4497,-3.5164,0.0059,1.0955,-2.6002
4.21000000,0.0851,-0.4508,-4.0439,0.0314,1.0009,-2.7946
4.21500000,0.1232,-0.5431,-4.4556,0.0073,0.8392,-2.8431
4.22000000,0.1138,-0.6083,-4.6414,-0.0220,0.7671,-2.6131
4.22500000,0.1572,-0.5693,-4.4845,0.0674,0.6996,-2.1710
4.23000000,0.3164,-0.4882,-4.0832,0.2228,0.6306,-1.6373
4.23500000,0.5241,-0.3634,-3.6597,0.3812,0.6999,-1.0799
4.24000000,0.6384,-0.0998,-3.4169,0.4141,0.9392,-0.9784
4.24500000,0.6327,0.2891,-3.3644,0.4364,1.1979,-0.9915
4.25000000,0.6112,0.7112,-3.3856,0.4791,1.4395,-1.0005
4.25500000,0.6066,1.0994,-3.3827,0.4901,1.6031,-0.9575
4.26000000,0.5911,1.4503,-3.3589,0.5036,1.7857,-0.9619
4.26500000,0.5623,1.8353,-3.3574,0.4690,2.0334,-0.9537
4.27000000,0.4894,2.2377,-3.3507,0.3623,2.2155,-0.9381
4.27500000,0.4118,2.5768,-3.3409,0.3086,2.3562,-0.9479
4.28000000,0.4289,2.8534,-3.3219,0.2861,2.4733,-1.0093
4.28500000,0.5268,3.1178,-3.1871,0.3166,2.5980,-1.0310
4.29000000,0.6437,3.3762,-2.9119,0.3277,2.6880,-1.0574
4.29500000,0.7626,3.5510,-2.6396,0.3150,2.7031,-1.1796
4.30000000,0.8930,3.5268,-2.4436,0.3622,2.4781,-1.3059
4.30500000,1.0419,3.2659,-2.2521,0.4408,2.1581,-1.3928
4.31000000,1.1853,2.9321,-2.0532,0.6615,1.8556,-1.6835
4.31500000,1.3131,2.6709,-1.9097,0.8515,1.6370,-1.7947
4.32000000,1.4142,2.4407,-1.8568,1.1028,1.3678,-2.1142
4.32500000,1.4206,2.2088,-1.9179,1.0851,0.9877,-2.3474
4.33000000,1.2734,1.9818,-2.0579,0.9507,0.6516,-2.5556
4.33500000,1.0568,1.7028,-2.1536,0.8553,0.2184,-2.6480
4.34000000,0.9110,1.3378,-2.1280,0.8437,-0.2495,-2.6196
4.34500000,0.8417,0.9464,-2.0279,0.8832,-0.8135,-2.5209
4.35000000,0.7398,0.5688,-1.9771,0.7895,-1.1450,-2.4923
4.35500000,0.5755,0.2468,-2.0202,0.7434,-1.3010,-2.3719
4.36000000,0.3847,0.0679,-2.0940,0.5883,-1.3541,-2.3297
4.36500000,0.1745,0.0259,-2.1551,0.4731,-1.3408,-2.2476
4.37000000,-0.0064,0.0583,-2.1850,0.3820,-1.2978,-2.1557
4.37500000,-0.1644,0.1302,-2.1882,0.3119,-1.2417,-1.9902
4.38000000,-0.3394,0.2184,-2.1784,0.2109,-1.1768,-1.9158
4.38500000,-0.5199,0.3177,-2.1543,0.1126,-1.1017,-1.8486
4.39000000,-0.6890,0.4448,-2.1483,0.0364,-0.9859,-1.8554
4.39500000,-0.9062,0.6807,-2.2076,-0.1355,-0.7183,-1.9418
4.40000000,-1.1629,1.0040,-2.2634,-0.2240,-0.5258,-1.9666
4.40500000,-1.3113,1.2385,-2.2248,-0.2389,-0.4357,-1.9691
4.41000000,-1.3637,1.3713,-2.1377,-0.2305,-0.3398,-1.9958
4.41500000,-1.4092,1.4961,-2.1019,-0.2261,-0.2507,-2.1467
4.42000000,-1.4620,1.6011,-2.2113,-0.1614,-0.1922,-2.5899
4.42500000,-1.5168,1.6161,-2.4544,-0.1288,-0.2542,-2.9422
4.43000000,-1.5817,1.4974,-2.7050,-0.1233,-0.3896,-3.2234
4.43500000,-1.6855,1.2775,-2.8804,-0.1629,-0.5781,-3.3765
4.44000000,-1.8916,0.9413,-3.0208,-0.3767,-0.9106,-3.5058
4.44500000,-2.1910,0.5330,-3.1624,-0.5740,-1.1494,-3.5760
4.45000000,-2.4377,0.2132,-3.2623,-0.7408,-1.3170,-3.6325
4.45500000,-2.6201,-0.0584,-3.3207,-0.9557,-1.5507,-3.6642
4.46000000,-2.8330,-0.4370,-3.3172,-1.3002,-1.8968,-3.6175
4.46500000,-3.0974,-0.9294,-3.2390,-1.5674,-2.2690,-3.5308
4.47000000,-3.4295,-1.4136,-3.2059,-1.8859,-2.5614,-3.4249
4.47500000,-3.8761,-1.7492,-3.3339,-2.2815,-2.6955,-3.3874
4.48000000,-4.4719,-1.8768,-3.5238,-2.7710,-2.6954,-3.2299
4.48500000,-5.1744,-1.8541,-3.4699,-3.2909,-2.6504,-2.7665
4.49000000,-5.8537,-1.8064,-2.9437,-3.8680,-2.6556,-1.8679
4.49500000,-6.4029,-1.8262,-1.9623,-4.3383,-2.7173,-0.9110
4.50000000,-6.8221,-1.9456,-0.7532,-4.7770,-2.8208,0.0287
4.50500000,-7.1464,-2.1549,0.3070,-5.1468,-2.7631,0.6514
4.51000000,-7.3939,-2.3489,0.8886,-5.4183,-2.5535,0.8747
4.51500000,-7.5709,-2.4053,1.0136,-5.5366,-2.2905,0.9593
4.52000000,-7.5186,-2.0971,1.2060,-5.2293,-1.5345,1.4904
4.52500000,-7.0890,-1.3583,1.7894,-4.7074,-0.7796,1.9923
4.53000000,-6.6014,-0.7325,2.6832,-4.5996,-0.1140,2.7555
4.53500000,-6.6210,-0.6521,3.5025,-5.2027,0.1357,2.7966
4.54000000,-8.0968,-2.0157,4.5776,-7.5610,-1.8340,4.3821
4.54500000,-10.2404,-4.6525,6.3523,-7.8851,-2.9962,5.6220
4.55000000,-9.8052,-4.9993,5.6085,-5.9123,-0.6968,2.2885
4.55500000,-5.9592,-0.1925,-1.8090,-2.5504,5.3969,-6.5166
4.56000000,-1.9439,8.2582,-12.2524,-1.6411,11.7676,-11.7095
4.56500000,-3.9697,7.4785,-17.1218,-8.7691,-1.6133,-11.3045
4.57000000,-6.9205,-2.3122,-11.1347,-2.7037,-2.0190,-0.0875
4.57500000,-0.8594,-2.9357,-1.4318,3.7543,1.8992,1.1342
4.58000000,3.5828,0.4601,0.1070,0.0509,0.9837,-1.0080
4.58500000,-0.3651,-0.3961,-2.6111,-2.6960,0.4342,-1.8896
4.59000000,-2.5884,-0.3556,-2.7732,-0.8325,0.6707,-0.9984
4.59500000,-0.7694,0.2218,-1.5907,0.2205,0.2513,-0.5539
4.60000000,0.2339,-0.0791,-0.9649,-0.3574,0.1311,-0.8425
4.60500000,-0.4171,-0.1005,-1.1780,-0.9725,0.6892,-0.9500
4.61000000,-1.0730,0.3790,-1.2238,-1.0266,0.6901,-0.7267
4.61500000,-1.0418,0.5286,-1.0072,-0.5901,0.5540,-0.5921
4.62000000,-0.6678,0.5218,-0.8703,-0.3760,0.5341,-0.6385
4.62500000,-0.4554,0.5176,-0.9425,-0.2459,0.3984,-0.6984
4.63000000,-0.3766,0.5229,-0.9943,-0.1582,0.4140,-0.5451
4.63500000,-0.3207,0.7346,-0.8349,-0.1426,0.6578,-0.3797
4.64000000,-0.3486,0.8717,-0.7646,-0.2272,0.6141,-0.5184
4.64500000,-0.3393,0.6495,-0.9220,-0.0538,0.2546,-0.6165
4.65000000,-0.2592,0.2980,-1.0174,-0.0985,0.0981,-0.6117
4.65500000,-0.2487,0.2313,-0.9796,-0.0441,0.4376,-0.5430
4.66000000,-0.2092,0.4525,-0.9055,-0.0158,0.5840,-0.5022
4.66500000,-0.1099,0.3623,-0.9792,-0.0495,-0.0036,-0.7321
4.67000000,-0.0599,0.0821,-1.1032,-0.2176,0.1576,-0.4749
4.67500000,-0.1132,0.3793,-0.9741,-0.3004,0.8376,-0.4237
4.68000000,-0.2569,0.7979,-0.8626,-0.2607,1.0607,-0.5681
4.68500000,-0.3218,0.6692,-0.9220,-0.1126,0.8807,-0.5683
4.69000000,-0.2326,0.3284,-0.9492,-0.0251,0.7553,-0.5354
4.69500000,-0.2258,0.1566,-0.9156,-0.1760,0.7994,-0.4507
4.70000000,-0.3051,0.1896,-0.8633,-0.1622,0.9713,-0.5409
4.70500000,-0.1953,0.2640,-0.7892,-0.0907,0.8548,-0.3893
4.71000000,-0.1940,0.1668,-0.7641,-0.5724,0.6554,-0.5900
4.71500000,-0.4117,0.1245,-0.8458,-0.6514,0.8998,-0.8128
4.72000000,-0.2358,0.3230,-0.8278,-0.2232,0.5916,-0.5535
4.72500000,0.3874,0.4391,-0.7446,0.2764,0.4392,-0.4160
4.73000000,0.6058,0.4147,-0.8495,-0.1701,0.4728,-0.4508
4.73500000,0.1578,0.3200,-1.1282,-0.3939,0.7108,-0.7821
4.74000000,0.0781,0.1766,-1.2760,0.1370,0.7297,-0.7124
4.74500000,0.5991,0.1823,-1.3939,0.4925,1.5312,-0.9288
4.75000000,0.8096,0.3576,-1.8183,0.2601,1.7519,-1.1226
4.75500000,0.7064,0.6001,-2.4151,0.4110,1.9606,-1.6573
4.76000000,0.4519,0.8534,-2.8366,-0.0640,2.1012,-1.5634
4.76500000,0.1034,1.2866,-3.2845,-0.0696,2.6877,-2.4658
4.77000000,-0.0892,1.5385,-3.8070,-0.2798,2.2449,-2.4165
4.77500000,-0.6574,1.1874,-3.2199,-0.9745,2.0654,-1.3178
4.78000000,-1.2974,0.4918,-1.3878,-1.1940,1.1884,0.4829
4.78500000,-4.2516,0.6638,-0.4472,-7.2391,2.8579,0.1328
4.79000000,-7.9711,2.4354,-1.8295,-5.7447,4.0041,-2.3239
4.79500000,-5.2649,3.3822,-2.8656,-0.5142,2.7409,-1.2834
4.80000000,-1.0537,2.5611,-1.2170,-1.3195,2.4412,0.5328
4.80500000,-1.4837,1.6995,0.8412,-2.2587,1.8326,0.9854
4.81000000,-2.2639,1.1375,1.2624,-1.8150,1.5806,0.4886
4.81500000,-1.6446,0.6157,0.5250,-1.3160,1.4151,-0.2830
4.82000000,-1.1391,0.2570,-0.5298,-1.0398,1.4603,-1.0238
4.82500000,-0.9028,0.1301,-1.5341,-0.6684,1.4906,-1.6479
4.83000000,-0.6289,0.1129,-2.3566,-0.3088,1.4865,-2.0613
4.83500000,-0.3040,0.0905,-2.9932,-0.0764,1.4439,-2.3924
4.84000000,-0.0651,0.0110,-3.5671,-0.0260,1.3466,-2.7111
4.84500000,0.0306,-0.1371,-4.1231,-0.0538,1.2092,-2.9547
4.85000000,0.0413,-0.3242,-4.5619,-0.0762,1.0545,-2.8809
4.85500000,0.0496,-0.4689,-4.7451,-0.0387,0.8024,-2.6575
4.86000000,0.0947,-0.4765,-4.6078,0.1012,0.7469,-2.2293
4.86500000,0.2203,-0.3660,-4.2243,0.2428,0.7358,-1.6894
4.87000000,0.4395,-0.2031,-3.7633,0.4060,0.8393,-1.2162
4.87500000,0.6395,0.0304,-3.4307,0.4348,1.0241,-0.9755
4.88000000,0.7119,0.3449,-3.3075,0.4183,1.2380,-0.9406
4.88500000,0.7254,0.6910,-3.3105,0.4169,1.4327,-0.9729
4.89000000,0.7503,1.0215,-3.3517,0.4262,1.6051,-0.9998
4.89500000,0.7363,1.3071,-3.4043,0.3735,1.7100,-1.0460
4.90000000,0.6712,1.5311,-3.4587,0.3710,1.7770,-1.0644
4.90500000,0.6171,1.7558,-3.4754,0.3757,1.9158,-1.0384
4.91000000,0.5844,2.0764,-3.4503,0.3427,2.1421,-1.0162
4.91500000,0.5527,2.4758,-3.4250,0.2530,2.3501,-1.0083
4.92000000,0.5275,2.8520,-3.4228,0.1732,2.5176,-1.0705
4.92500000,0.5524,3.1640,-3.3857,0.1538,2.6700,-1.1697
4.93000000,0.6499,3.4321,-3.2299,0.1494,2.7609,-1.2602
4.93500000,0.8116,3.6229,-2.9895,0.1926,2.7737,-1.3394
4.94000000,1.0278,3.6080,-2.6989,0.2430,2.5284,-1.3509
4.94500000,1.2321,3.3222,-2.3796,0.3332,2.0660,-1.6150
4.95000000,1.3872,2.9378,-2.0996,0.5421,1.7741,-1.6330
4.95500000,1.5167,2.6699,-1.8792,0.7685,1.6312,-1.6804
4.96000000,1.5819,2.5647,-1.7388,0.8956,1.5425,-1.7892
4.96500000,1.5423,2.5491,-1.6930,0.9457,1.4389,-1.9509
4.97000000,1.4318,2.5129,-1.7370,0.9358,1.2407,-2.3359
4.97500000,1.2223,2.2394,-1.8331,0.7750,0.4864,-2.4908
4.98000000,0.9734,1.6895,-1.8586,0.7416,-0.0780,-2.4991
4.98500000,0.8629,1.1767,-1.7878,0.8129,-0.4858,-2.4718
4.99000000,0.8333,0.8437,-1.7695,0.8515,-0.7929,-2.5234
4.99500000,0.7474,0.6315,-1.9076,0.9090,-0.9720,-2.5751
5.00000000,0.5986,0.5119,-2.1515,0.8264,-1.0339,-2.6794
5.00500000,0.4061,0.4414,-2.3943,0.7009,-1.0765,-2.7319
5.01000000,0.2105,0.3995,-2.5603,0.6016,-1.0896,-2.7062
5.01500000,0.0567,0.3743,-2.5976,0.5356,-1.1175,-2.5646
5.02000000,-0.0770,0.3523,-2.5271,0.4494,-1.1246,-2.4236
5.02500000,-0.2400,0.3417,-2.4246,0.3429,-1.1324,-2.2671
5.03000000,-0.4367,0.3245,-2.3118,0.2205,-1.1623,-2.1245
5.03500000,-0.6358,0.2930,-2.2240,0.1779,-1.1824,-1.9773
5.04000000,-0.8515,0.3108,-2.2457,0.0450,-1.1146,-2.0297
5.04500000,-1.0977,0.4511,-2.3767,-0.0456,-0.9428,-2.1049
5.05000000,-1.3121,0.7207,-2.4969,-0.1182,-0.7022,-2.1492
5.05500000,-1.4737,1.0353,-2.5380,-0.1793,-0.5018,-2.1909
5.06000000,-1.5828,1.2859,-2.5122,-0.2091,-0.3754,-2.2285
5.06500000,-1.6167,1.4486,-2.4476,-0.1848,-0.2840,-2.3087
5.07000000,-1.5990,1.5453,-2.4513,-0.1620,-0.2488,-2.5530
5.07500000,-1.5838,1.5357,-2.6450,-0.1123,-0.3239,-3.1544
5.08000000,-1.6058,1.4150,-3.0355,-0.1099,-0.4252,-3.6468
5.08500000,-1.7190,1.2454,-3.5028,-0.2257,-0.5646,-3.9845
5.09000000,-2.0042,0.9822,-3.8625,-0.5058,-0.8449,-4.1258
5.09500000,-2.3705,0.6248,-3.9701,-0.7704,-1.0766,-4.0524
5.10000000,-2.6272,0.3068,-3.8646,-0.9870,-1.2642,-3.9545
5.10500000,-2.7952,-0.0054,-3.7254,-1.2159,-1.5442,-3.8908
5.11000000,-2.9794,-0.4120,-3.6561,-1.4490,-1.8675,-3.8971
5.11500000,-3.2304,-0.8042,-3.7274,-1.7471,-2.0611,-4.0627
5.12000000,-3.6246,-1.0302,-4.0166,-2.1644,-2.1282,-4.3453
5.12500000,-4.2043,-1.0881,-4.4535,-2.7107,-2.1180,-4.2902
5.13000000,-4.9280,-1.0609,-4.7748,-3.2659,-2.0965,-4.1634
5.13500000,-5.6929,-1.1133,-4.5116,-3.7877,-2.2611,-3.3275
5.14000000,-6.5231,-1.5287,-2.7939,-4.5128,-2.8484,-0.8432
5.14500000,-7.3126,-2.1499,-0.1617,-4.9218,-3.1151,0.6270
5.15000000,-7.7484,-2.3717,1.1916,-5.1926,-2.9697,0.8205
5.15500000,-7.9223,-2.1682,1.0064,-5.5746,-2.3348,0.5293
5.16000000,-8.0334,-1.9178,0.6140,-5.6928,-1.9648,0.5157
5.16500000,-8.0285,-1.7143,0.6752,-5.6138,-1.6397,0.9062
5.17000000,-7.8087,-1.4622,1.2960,-5.2999,-1.2049,1.5706
5.17500000,-7.3725,-1.0851,2.1404,-4.9540,-0.6466,2.0061
5.18000000,-6.9272,-0.7064,2.6365,-4.7720,-0.1910,1.9054
5.18500000,-6.6396,-0.5492,2.5360,-4.6468,0.2902,1.2493
5.19000000,-6.4224,-0.9081,2.1468,-4.4427,-0.1375,0.9059
5.19500000,-6.1261,-2.2233,2.4359,-4.2038,-1.4079,1.9244
5.20000000,-6.0552,-4.8510,3.9321,-4.6053,-3.8181,3.5660
5.20500000,-4.9038,-5.5342,4.0385,-1.6094,-0.6340,1.8081
5.21000000,-1.6277,-1.2873,0.3453,-0.1910,3.4831,-1.3883
5.21500000,0.3972,3.7995,-3.9210,-1.4110,5.6952,-2.6456
5.22000000,-1.7206,8.7797,-8.0659,-5.1237,11.3129,-8.3022
5.22500000,-7.5979,6.9960,-14.1986,-10.6100,-1.7679,-11.9638
5.23000000,-8.2727,-4.9373,-12.5343,-0.9480,-8.7144,-1.1027
5.23500000,-0.3981,-7.3819,-2.5277,2.5013,0.9078,1.4679
5.24000000,1.6805,0.3268,0.3070,-2.3204,3.2598,-1.1001
5.24500000,-2.4774,1.6369,-2.2239,-2.4294,0.0705,-1.1350
5.25000000,-2.2378,-1.0545,-2.2342,-0.0257,-1.0826,-1.0774
5.25500000,0.1484,-1.0563,-1.5241,0.3518,0.5206,-0.7770
5.26000000,0.4704,0.3675,-1.1883,-0.2797,0.7990,-0.8706
5.26500000,-0.3723,0.7695,-1.1910,-0.8869,0.7607,-0.9146
5.27000000,-1.1033,0.4995,-1.1813,-1.1600,0.5640,-0.6230
5.27500000,-1.3371,0.3170,-0.9629,-0.9179,0.3436,-0.5830
5.28000000,-1.0796,0.2293,-0.9046,-0.5929,0.2509,-0.6975
5.28500000,-0.7345,0.2836,-0.9831,-0.3970,0.3405,-0.7262
5.29000000,-0.3801,0.4414,-1.0427,0.0348,0.3479,-0.7599
5.29500000,0.0383,0.6591,-1.0044,0.2063,0.4381,-0.6203
5.30000000,0.1903,0.7403,-0.9001,0.1197,0.3146,-0.6332
5.30500000,0.0959,0.5506,-0.8890,0.0476,0.1403,-0.6387
5.31000000,-0.0395,0.3324,-0.9118,-0.1006,0.2269,-0.6012
5.31500000,-0.2566,0.2525,-0.9098,-0.2710,0.2439,-0.5879
5.32000000,-0.4251,0.2678,-0.9188,-0.2493,0.3631,-0.5697
5.32500000,-0.3481,0.3709,-0.9408,-0.0565,0.4193,-0.5950
5.33000000,-0.1728,0.4579,-0.9550,-0.0103,0.5256,-0.5278
5.33500000,-0.1257,0.5987,-0.8658,-0.0440,0.7881,-0.3671
5.34000000,-0.1314,0.6253,-0.8343,-0.0051,0.5343,-0.5338
5.34500000,-0.1011,0.4198,-0.9842,0.0257,0.6437,-0.5774
5.35000000,-0.0876,0.3918,-1.0031,0.0219,0.7495,-0.4357
5.35500000,-0.0768,0.4320,-0.8852,0.0620,0.7536,-0.4147
5.36000000,-0.0648,0.2945,-0.8310,-0.0217,0.7616,-0.3656
5.36500000,-0.1199,0.1658,-0.8543,-0.1288,0.8238,-0.4568
5.37000000,-0.1408,0.1863,-0.9146,-0.0863,0.9255,-0.4442
5.37500000,-0.1640,0.2010,-0.8477,-0.3384,0.8377,-0.3820
5.38000000,-0.2669,0.1508,-0.6791,-0.4980,0.9819,-0.3657
5.38500000,-0.1506,0.1699,-0.6558,-0.3237,0.6551,-0.5045
5.39000000,0.1148,0.2877,-0.8438,-0.2904,0.5512,-0.6052
5.39500000,0.1648,0.4238,-1.0671,-0.3109,0.2295,-0.6190
5.40000000,0.1861,0.4094,-1.1664,-0.0705,0.5925,-0.5732
5.40500000,0.4619,0.4708,-1.3193,0.2276,1.2414,-0.8455
5.41000000,0.6044,0.6035,-1.6076,0.0398,1.5364,-0.8787
5.41500000,0.6142,0.6877,-2.0053,0.4053,2.0108,-1.1526
5.42000000,0.8275,0.8322,-2.4927,0.5709,1.9615,-1.1320
5.42500000,0.2880,0.6288,-2.5951,-0.4244,1.5224,-0.6953
5.43000000,-0.6749,0.4018,-2.9114,0.0489,1.8161,-1.5757
5.43500000,-0.7842,0.3155,-3.3588,0.2850,1.2927,-0.9598
5.44000000,-0.9945,0.2138,-1.7462,-0.4094,1.7587,1.9159
5.44500000,-3.1318,1.0133,0.6529,-4.2497,2.8470,2.2224
5.45000000,-6.6256,3.0769,0.2593,-6.0443,4.9091,-0.2078
5.45500000,-6.6982,4.9412,-1.5227,-2.5501,4.5281,-1.0792
5.46000000,-3.2448,4.5976,-1.0513,-1.3674,3.3684,0.2998
5.46500000,-1.5668,2.6463,1.0387,-1.6731,2.0485,0.9161
5.47000000,-1.6277,0.9593,1.9610,-1.5480,1.5414,0.3960
5.47500000,-1.4985,0.0963,0.9804,-1.4000,1.3296,-0.9635
5.48000000,-1.3728,-0.1162,-0.9514,-1.2723,1.3648,-2.3603
5.48500000,-1.2092,-0.1116,-2.8303,-1.0121,1.3331,-3.3787
5.49000000,-0.8681,-0.2107,-4.1816,-0.6536,1.1572,-3.9079
5.49500000,-0.4098,-0.4636,-4.9583,-0.3163,0.9376,-4.0415
5.50000000,-0.0311,-0.7872,-5.3241,-0.1357,0.6736,-3.9445
5.50500000,0.1746,-1.1587,-5.4490,0.0162,0.3809,-3.6748
5.51000000,0.2728,-1.5148,-5.3861,0.1567,0.1322,-3.2258
5.51500000,0.4023,-1.5245,-4.9555,0.4422,0.3546,-2.2772
5.52000000,0.6252,-0.9622,-4.2445,0.6181,0.8291,-1.3608
5.52500000,0.7845,-0.1716,-3.8378,0.5618,1.2344,-1.3077
5.53000000,0.8120,0.5120,-3.8465,0.4735,1.5975,-1.3939
5.53500000,0.8148,1.0772,-3.9361,0.3991,1.8634,-1.4298
5.54000000,0.8264,1.5142,-3.9337,0.3547,1.9821,-1.3525
5.54500000,0.8387,1.7938,-3.7992,0.3509,2.0059,-1.1994
5.55000000,0.8433,1.9629,-3.6131,0.3618,1.9996,-1.0855
5.55500000,0.8182,2.1219,-3.4531,0.3572,2.0581,-0.9689
5.56000000,0.7515,2.3479,-3.2808,0.3130,2.2194,-0.8147
5.56500000,0.6770,2.6193,-3.0751,0.2801,2.3480,-0.6684
5.57000000,0.6403,2.8649,-2.9026,0.1561,2.4546,-0.6451
5.57500000,0.6782,3.0484,-2.8165,0.1971,2.4842,-0.7868
5.58000000,0.7742,3.1818,-2.7811,0.2122,2.5648,-0.9679
5.58500000,0.8645,3.3066,-2.6998,0.2516,2.5842,-1.1008
5.59000000,0.9775,3.4012,-2.5380,0.3140,2.5361,-1.2187
5.59500000,1.1097,3.4003,-2.3657,0.3221,2.3929,-1.3599
5.60000000,1.2160,3.2809,-2.2355,0.3648,2.1591,-1.5143
5.60500000,1.3114,3.0597,-2.1332,0.4268,1.8661,-1.6541
5.61000000,1.3792,2.7852,-1.9859,0.5117,1.5776,-1.6584
5.61500000,1.4418,2.5330,-1.7196,0.6900,1.3385,-1.5700
5.62000000,1.5339,2.3416,-1.4401,0.9743,1.0833,-1.7099
5.62500000,1.5984,2.1981,-1.3293,1.0766,0.8903,-1.8497
5.63000000,1.5828,2.0634,-1.4233,1.1092,0.6634,-2.1010
5.63500000,1.4532,1.8764,-1.6656,1.0240,0.3457,-2.3922
5.64000000,1.2141,1.6068,-1.9453,0.9048,-0.0572,-2.5930
5.64500000,0.9955,1.2870,-2.1218,0.8785,-0.4665,-2.6226
5.65000000,0.8722,0.9830,-2.1626,0.8609,-0.7783,-2.5680
5.65500000,0.7072,0.7075,-2.1951,0.6999,-0.9996,-2.5920
5.66000000,0.4972,0.5048,-2.2784,0.6750,-1.0452,-2.5487
5.66500000,0.3229,0.4414,-2.3355,0.5386,-1.0543,-2.4880
5.67000000,0.0990,0.4291,-2.3364,0.3938,-1.0813,-2.2889
5.67500000,-0.1312,0.4127,-2.2813,0.3341,-1.0771,-2.1547
5.68000000,-0.3091,0.4099,-2.1891,0.2472,-1.0899,-2.0214
5.68500000,-0.4694,0.3941,-2.0842,0.1837,-1.1104,-1.8909
5.69000000,-0.6089,0.3852,-1.9919,0.1276,-1.0945,-1.8007
5.69500000,-0.7452,0.4298,-1.9696,0.0611,-1.0305,-1.7966
5.70000000,-0.8978,0.5334,-2.0309,-0.0205,-0.9355,-1.8372
5.70500000,-1.0578,0.6800,-2.1075,-0.0971,-0.8142,-1.8531
5.71000000,-1.1971,0.8648,-2.1611,-0.1574,-0.6621,-1.9101
5.71500000,-1.3069,1.0875,-2.2231,-0.1889,-0.4855,-2.0577
5.72000000,-1.4031,1.3135,-2.2451,-0.2410,-0.3444,-2.0995
5.72500000,-1.4619,1.4919,-2.1744,-0.2072,-0.2460,-2.1378
5.73000000,-1.4779,1.6242,-2.1623,-0.1881,-0.1569,-2.3785
5.73500000,-1.5169,1.7186,-2.3520,-0.1710,-0.1180,-2.7431
5.74000000,-1.5935,1.7395,-2.6419,-0.1583,-0.1456,-3.0947
5.74500000,-1.7292,1.6618,-2.8936,-0.2352,-0.2471,-3.3826
5.75000000,-1.9486,1.5185,-3.0968,-0.4093,-0.3526,-3.5201
5.75500000,-2.1227,1.4130,-3.2343,-0.3871,-0.3633,-3.5952
5.76000000,-2.2331,1.3498,-3.2879,-0.5203,-0.4469,-3.6265
5.76500000,-2.4447,1.1850,-3.3359,-0.7318,-0.6494,-3.6789
5.77000000,-2.6561,0.9825,-3.3883,-0.8097,-0.7022,-3.6914
5.77500000,-2.7621,0.8234,-3.4025,-0.9812,-0.8796,-3.6990
5.78000000,-2.9322,0.5252,-3.4175,-1.2431,-1.1996,-3.7354
5.78500000,-3.1197,0.2050,-3.4474,-1.2822,-1.2691,-3.7463
5.79000000,-3.2258,0.0079,-3.4565,-1.4425,-1.4691,-3.7425
5.79500000,-3.4160,-0.3470,-3.4415,-1.6928,-1.8723,-3.7289
5.80000000,-3.6415,-0.7502,-3.4256,-1.7378,-1.9661,-3.7239
5.80500000,-3.7881,-0.9842,-3.3981,-1.8866,-2.1789,-3.6342
5.81000000,-4.0658,-1.2826,-3.3792,-2.1798,-2.4533,-3.6592
5.81500000,-4.5781,-1.5821,-3.4323,-2.5962,-2.5462,-3.5368
5.82000000,-5.2120,-1.6653,-3.4545,-3.0736,-2.5208,-3.2289
5.82500000,-5.6854,-1.6324,-3.3704,-3.1995,-2.5097,-2.9783
5.83000000,-5.9168,-1.6236,-3.1219,-3.4983,-2.5383,-2.4407
5.83500000,-6.2735,-1.6757,-2.4452,-4.0219,-2.6102,-1.5707
5.84000000,-6.7838,-1.7860,-1.3691,-4.5196,-2.7180,-0.6377
5.84500000,-7.1353,-1.9359,-0.2241,-4.6307,-2.8354,0.2220
5.85000000,-7.2340,-2.0500,0.5364,-4.8102,-2.8078,0.3141
5.85500000,-7.2367,-2.1139,0.8309,-5.0702,-2.6464,0.6173
5.86000000,-7.2630,-2.2071,1.1394,-5.2428,-2.4624,0.9829
5.86500000,-7.2448,-2.2677,1.4717,-5.2737,-2.1853,1.2109
5.87000000,-7.1227,-2.1595,1.6484,-5.1079,-1.7957,1.4024
5.87500000,-6.8530,-1.8185,1.8080,-4.7494,-1.2189,1.6139
5.88000000,-6.4624,-1.2684,2.0084,-4.3811,-0.5519,1.7699
5.88500000,-6.0527,-0.6956,2.1595,-4.0488,-0.0067,1.7376
5.89000000,-5.7010,-0.3368,2.1368,-3.8939,0.5510,1.3000
5.89500000,-5.4660,-0.3268,1.9685,-3.8231,0.6037,1.0082
5.90000000,-5.9553,-1.4063,2.8724,-5.1360,-0.9498,3.1041
5.90500000,-5.9845,-4.4956,5.1121,-3.2933,-3.9822,5.0936
5.91000000,-5.2175,-5.8816,4.6877,-4.6861,-1.1562,2.1384
5.91500000,-4.2154,-0.6639,-1.4155,-2.6346,5.5901,-4.4088
5.92000000,-4.2089,4.0480,-10.2174,-6.4259,3.0054,-10.6463
5.92500000,-6.3167,1.2738,-13.3979,-6.1976,-0.1857,-6.2138
5.93000000,-3.5522,-2.0765,-7.8862,0.8389,-2.0266,-1.3698
5.93500000,2.2038,-2.1830,-2.1904,1.3880,-0.6595,-0.0888
5.94000000,1.0433,-1.2425,-1.3812,-2.5683,1.2854,-1.0066
5.94500000,-2.4641,-0.5233,-2.2223,-2.0524,0.0895,-1.1069
5.95000000,-1.7169,-0.9979,-2.0687,0.0186,-0.7718,-0.7316
5.95500000,0.1135,-0.9935,-1.3498,0.0444,0.1347,-0.5301
5.96000000,0.2253,-0.1850,-1.1795,-0.3490,0.2524,-0.8677
5.96500000,-0.1790,0.2243,-1.3442,-0.5620,0.5563,-0.7949
5.97000000,-0.5081,0.5553,-1.2421,-0.8923,0.7387,-0.6133
5.97500000,-0.8303,0.7052,-1.0397,-0.9091,0.5870,-0.6019
5.98000000,-0.8624,0.5116,-1.0356,-0.7305,0.2757,-0.7145
5.98500000,-0.6597,0.3003,-1.0250,-0.5347,0.2334,-0.5729
5.99000000,-0.5704,0.2724,-0.9542,-0.6461,0.4180,-0.6053
5.99500000,-0.5835,0.3914,-1.0073,-0.4662,0.4072,-0.6799
6.00000000,-0.3722,0.4369,-1.0740,-0.1046,0.2669,-0.6440
6.00500000,-0.1373,0.3981,-1.0471,-0.1092,0.2943,-0.6388
6.01000000,-0.1556,0.3645,-1.0299,-0.1337,0.2153,-0.6582
6.01500000,-0.1548,0.3298,-1.0640,-0.0001,0.1929,-0.7438
6.02000000,-0.0461,0.2898,-1.0661,0.0471,0.2507,-0.6268
6.02500000,-0.0344,0.2692,-0.9674,-0.0269,0.4132,-0.5545
6.03000000,-0.0527,0.2859,-0.9267,0.0398,0.3585,-0.6145
6.03500000,-0.0298,0.2919,-0.9609,-0.0118,0.3534,-0.5845
6.04000000,-0.0777,0.3035,-0.9676,-0.0507,0.4851,-0.5454
6.04500000,-0.1103,0.2879,-0.9827,0.0149,0.5203,-0.5340
6.05000000,-0.1538,0.1935,-1.0127,-0.1105,0.6041,-0.5222
6.05500000,-0.2534,0.1420,-1.0423,-0.0750,0.7456,-0.5027
6.06000000,-0.2147,0.1381,-1.0435,0.0174,0.6927,-0.5115
6.06500000,-0.0556,0.1315,-1.0173,0.0985,0.7474,-0.5445
6.07000000,0.0675,0.1066,-0.9956,0.1132,0.7169,-0.5613
6.07500000,0.1256,0.0865,-0.9744,0.0956,0.8671,-0.5763
6.08000000,0.0989,0.0815,-0.9454,-0.1022,0.7668,-0.5449
6.08500000,0.0167,0.0076,-0.8845,-0.1991,0.6348,-0.4301
6.09000000,-0.0124,0.1001,-0.8167,-0.2758,0.8362,-0.3925
6.09500000,-0.1677,0.3877,-0.9160,-0.6408,0.8629,-0.5709
6.10000000,-0.3378,0.4436,-1.1293,-0.4872,0.7050,-0.6005
6.10500000,-0.1506,0.3606,-1.3467,-0.2508,0.8135,-0.8848
6.11000000,0.1366,0.4011,-1.5363,-0.0869,1.0924,-0.9038
6.11500000,0.4084,0.4880,-1.7091,0.1738,1.7825,-1.2569
6.12000000,0.6501,0.6233,-1.8634,0.1927,1.9281,-1.0801
6.12500000,0.5727,0.7880,-1.9152,-0.1306,2.0281,-1.2631
6.13000000,0.1084,0.9300,-2.0554,-0.7329,2.1267,-1.2678
6.13500000,-0.2337,1.0308,-2.7532,-0.4439,2.1402,-2.3300
6.14000000,-0.0542,1.0594,-3.7112,-0.0588,2.1432,-2.3247
6.14500000,-0.1283,1.1968,-3.1238,-0.6471,2.4058,-0.3928
6.15000000,-0.6339,1.0180,-0.6519,-1.4894,1.6081,1.9445
6.15500000,-2.3432,1.4579,-0.0775,-4.2326,3.6375,-1.2236
6.16000000,-4.1040,3.2097,-2.4738,-2.7243,3.8160,-2.8971
6.16500000,-3.0480,3.6364,-2.8853,-1.4225,3.1033,-1.2159
6.17000000,-1.4629,2.2710,-0.5888,-1.1486,1.7991,-0.0251
6.17500000,-1.0753,0.7764,0.7792,-1.0621,1.0078,-0.2573
6.18000000,-0.8303,-0.2961,0.3631,-0.7958,0.8110,-1.1801
6.18500000,-0.5981,-0.8051,-0.9662,-0.4898,0.7563,-2.2343
6.19000000,-0.3896,-0.9516,-2.4667,-0.2048,0.7454,-2.9791
6.19500000,-0.2071,-0.9750,-3.6998,-0.0717,0.7116,-3.4410
6.20000000,0.0215,-1.0717,-4.4619,0.0379,0.5531,-3.5513
6.20500000,0.2278,-1.3216,-4.8052,0.1134,0.2849,-3.4357
6.21000000,0.3480,-1.6376,-4.8445,0.2012,-0.0015,-3.0684
6.21500000,0.4061,-1.8077,-4.5807,0.2992,-0.0672,-2.4280
6.22000000,0.4672,-1.6602,-4.0640,0.4437,0.1575,-1.7079
6.22500000,0.5865,-1.2135,-3.5444,0.5580,0.5422,-1.1868
6.23000000,0.7046,-0.6190,-3.3072,0.5323,0.9951,-1.0198
6.23500000,0.7482,-0.0094,-3.3974,0.3742,1.4001,-1.1488
6.24000000,0.7652,0.5232,-3.6223,0.3351,1.6027,-1.3029
6.24500000,0.7962,0.9250,-3.8117,0.3367,1.7208,-1.3906
6.25000000,0.8050,1.2121,-3.9073,0.3484,1.7778,-1.3959
6.25500000,0.7721,1.4372,-3.8997,0.3752,1.8045,-1.3321
6.26000000,0.7222,1.6428,-3.7974,0.4247,1.8483,-1.2020
6.26500000,0.6311,2.0046,-3.6193,0.3797,2.2245,-1.0399
6.27000000,0.5220,2.5518,-3.4258,0.4015,2.5013,-0.9208
6.27500000,0.5278,3.0031,-3.2705,0.4977,2.6629,-0.9101
6.28000000,0.6365,3.3587,-3.1128,0.5247,2.8393,-0.9964
6.28500000,0.7332,3.7226,-2.9114,0.4856,2.9868,-1.1317
6.29000000,0.8023,3.9271,-2.7074,0.4102,2.8946,-1.3126
6.29500000,0.8840,3.8477,-2.5356,0.3612,2.5979,-1.5118
6.30000000,0.9900,3.5279,-2.3894,0.3765,2.1783,-1.6951
6.30500000,1.1028,3.0911,-2.2345,0.4750,1.7669,-1.8030
6.31000000,1.2043,2.6556,-1.9979,0.6272,1.3934,-1.7659
6.31500000,1.2975,2.2824,-1.7027,0.8320,1.1020,-1.7527
6.32000000,1.3836,2.0055,-1.5220,1.0044,0.9037,-1.8642
6.32500000,1.4189,1.8183,-1.5412,1.1005,0.7220,-2.1448
6.33000000,1.3596,1.6528,-1.7255,1.1234,0.3605,-2.4048
6.33500000,1.1940,1.4524,-2.0442,1.0058,0.0381,-2.7216
6.34000000,0.9797,1.2112,-2.3675,0.9292,-0.3425,-2.8872
6.34500000,0.8264,0.9320,-2.4972,0.9241,-0.7539,-2.8237
6.35000000,0.7493,0.6486,-2.4525,0.9196,-1.0214,-2.7409
6.35500000,0.6596,0.4222,-2.4219,0.8459,-1.1488,-2.6930
6.36000000,0.5155,0.2474,-2.4544,0.7649,-1.2710,-2.6329
6.36500000,0.3494,0.0963,-2.4681,0.6826,-1.3612,-2.4992
6.37000000,0.1945,-0.0109,-2.4303,0.6278,-1.4118,-2.3508
6.37500000,0.0479,-0.0682,-2.3916,0.5370,-1.4419,-2.1242
6.38000000,-0.1188,-0.0767,-2.3721,0.5150,-1.4169,-2.0075
6.38500000,-0.3045,-0.0376,-2.3393,0.4191,-1.3818,-1.8946
6.39000000,-0.4936,0.0087,-2.2741,0.3293,-1.3623,-1.7671
6.39500000,-0.6733,0.0658,-2.1916,0.2439,-1.2916,-1.6777
6.40000000,-0.8369,0.1850,-2.1393,0.1611,-1.1721,-1.6489
6.40500000,-0.9953,0.3727,-2.1530,0.0634,-1.0099,-1.7121
6.41000000,-1.1489,0.6008,-2.1986,-0.0266,-0.8406,-1.7644
6.41500000,-1.2552,0.8441,-2.2034,-0.0554,-0.6602,-1.8144
6.42000000,-1.2936,1.0750,-2.1841,-0.0709,-0.5172,-1.9247
6.42500000,-1.3057,1.2437,-2.1828,-0.0648,-0.4409,-2.0563
6.43000000,-1.3290,1.3496,-2.2263,-0.0524,-0.3615,-2.4752
6.43500000,-1.3938,1.4181,-2.4800,-0.0787,-0.3396,-3.0279
6.44000000,-1.4801,1.3906,-2.9116,-0.0853,-0.4324,-3.4465
6.44500000,-1.5541,1.2187,-3.1894,-0.1287,-0.6145,-3.5939
6.45000000,-1.6598,0.9608,-3.3000,-0.2430,-0.8039,-3.6891
6.45500000,-1.8335,0.7005,-3.4546,-0.4272,-0.9741,-3.8499
6.46000000,-2.0683,0.4787,-3.6919,-0.6923,-1.1030,-4.0514
6.46500000,-2.3347,0.2879,-3.9550,-1.0049,-1.2396,-4.2366
6.47000000,-2.5933,0.0565,-4.1890,-1.3562,-1.4570,-4.3945
6.47500000,-2.8432,-0.2821,-4.3503,-1.8565,-1.7523,-4.4796
6.48000000,-3.1251,-0.7285,-4.3928,-2.1633,-2.1155,-4.4443
6.48500000,-3.4814,-1.2270,-4.2649,-2.4565,-2.4631,-4.1376
6.49000000,-3.9153,-1.6335,-3.9424,-2.7747,-2.6461,-3.5646
6.49500000,-4.4440,-1.7915,-3.5058,-3.1900,-2.6157,-2.9549
6.50000000,-5.0951,-1.6838,-3.0010,-3.6859,-2.4461,-2.2563
6.50500000,-5.8107,-1.4225,-2.3118,-4.1891,-2.2386,-1.4082
6.51000000,-6.4865,-1.1499,-1.3889,-4.6445,-2.0925,-0.4451
6.51500000,-7.0605,-0.9843,-0.3596,-4.9941,-1.9912,0.3106
6.52000000,-7.5544,-1.0057,0.6993,-5.3236,-1.8545,1.0780
6.52500000,-7.8807,-1.1592,1.4887,-5.3535,-1.6755,1.2083
6.53000000,-7.9053,-1.2755,1.6149,-5.2628,-1.4364,0.9737
6.53500000,-7.7473,-1.3046,1.4220,-5.1379,-1.2015,0.9009
6.54000000,-7.4837,-1.2929,1.4365,-4.9793,-0.7913,1.0087
6.54500000,-7.0496,-1.2871,1.5996,-4.6498,-0.6268,1.0609
6.55000000,-6.5649,-1.3502,1.6154,-4.4063,-0.5536,0.8957
6.55500000,-6.3292,-1.5882,1.6563,-4.4714,-0.7087,1.1855
6.56000000,-6.9943,-2.8449,3.1523,-5.7603,-2.2812,3.8959
6.56500000,-7.9522,-4.8187,5.9777,-5.3258,-2.6419,5.7460
6.57000000,-7.4841,-4.5027,6.0351,-4.5474,-0.2511,3.1408
6.57500000,-4.8729,-0.6439,0.3359,-1.8171,3.6400,-3.3206
6.58000000,-1.3685,4.1080,-6.8741,-0.8071,6.1527,-6.1463
6.58500000,-0.0796,8.1802,-9.3782,-2.0685,9.3277,-5.3498
6.59000000,-1.5331,7.6710,-5.7552,-3.2315,2.5035,0.7568
6.59500000,-0.2772,1.2011,-0.0960,2.9292,-2.7666,1.8241
6.60000000,2.5438,-2.3945,0.5288,0.3396,-0.2273,-1.3719
6.60500000,-0.1664,-1.1202,-2.5792,-3.0414,1.3386,-2.0659
6.61000000,-2.8289,-0.3515,-3.0397,-1.1681,0.3553,-0.6946
6.61500000,-0.9120,-0.4609,-1.6095,0.3177,0.1583,-0.6867
6.62000000,0.4107,-0.0878,-1.1244,-0.1099,0.6002,-0.8392
6.62500000,0.0383,0.0069,-1.2976,-0.3962,-0.0059,-1.0314
6.63000000,-0.4611,-0.1921,-1.4081,-0.7990,0.6178,-0.9755
6.63500000,-0.9079,0.2824,-1.2851,-0.9776,0.8133,-0.7022
6.64000000,-1.0548,0.5838,-0.9889,-0.6941,0.4218,-0.6081
6.64500000,-0.7534,0.3726,-0.8587,-0.4040,0.2896,-0.7006
6.65000000,-0.4662,0.2670,-0.9492,-0.3064,0.2870,-0.7888
6.65500000,-0.3299,0.3734,-1.0592,-0.1510,0.3050,-0.8066
6.66000000,-0.2377,0.5845,-1.0283,-0.1587,0.5120,-0.6673
6.66500000,-0.3055,0.6951,-0.9359,-0.3233,0.4557,-0.6411
6.67000000,-0.4070,0.6122,-0.9164,-0.2387,0.4035,-0.5760
6.67500000,-0.3377,0.4953,-0.9136,-0.1467,0.2888,-0.5702
6.68000000,-0.2568,0.3883,-0.9419,-0.1027,0.2799,-0.5942
6.68500000,-0.1881,0.3493,-0.9835,0.0320,0.3814,-0.5632
6.69000000,-0.0979,0.4207,-0.9466,0.0209,0.5130,-0.4997
6.69500000,-0.0343,0.5111,-0.9387,0.1242,0.6258,-0.5723
6.70000000,0.0209,0.5298,-0.9780,0.1110,0.6747,-0.5337
6.70500000,0.0064,0.4522,-0.9622,0.0848,0.7515,-0.5325
6.71000000,-0.0493,0.3609,-0.9532,0.0624,0.7823,-0.5522
6.71500000,-0.1334,0.3210,-0.9643,-0.0414,0.8978,-0.5129
6.72000000,-0.2318,0.3350,-0.9553,-0.0778,1.0744,-0.5127
6.72500000,-0.2585,0.3716,-0.8897,-0.1473,1.1431,-0.4097
6.73000000,-0.2257,0.2999,-0.7995,-0.1347,0.9390,-0.4420
6.73500000,-0.1769,0.1390,-0.7484,-0.2050,0.8577,-0.4009
6.74000000,-0.1568,0.1339,-0.6937,-0.3343,0.8847,-0.4804
6.74500000,0.0067,0.2083,-0.6860,-0.1352,0.7013,-0.5541
6.75000000,0.3597,0.3522,-0.8033,-0.0363,0.6619,-0.6547
6.75500000,0.2919,0.5243,-0.9836,-0.6178,0.4738,-0.3907
6.76000000,-0.1033,0.4900,-1.2047,-0.4583,1.0407,-0.7667
6.76500000,0.0422,0.4525,-1.3873,0.0176,1.2382,-0.7415
6.77000000,0.4464,0.4629,-1.4784,0.0077,1.5523,-0.8451
6.77500000,0.6286,0.5985,-1.7366,0.1699,2.0348,-1.0532
6.78000000,0.6498,0.7942,-2.0048,0.0078,1.8904,-0.8584
6.78500000,0.5388,0.9172,-2.7221,0.0225,2.2323,-2.2261
6.79000000,0.3842,1.0683,-3.9201,-0.0109,2.0889,-2.4228
6.79500000,-0.2364,1.2345,-3.5852,-0.7908,2.4830,-0.7283
6.80000000,-1.0391,1.0148,-1.4460,-1.1168,1.5138,1.3237
6.80500000,-4.0575,1.0673,-0.3146,-7.0583,2.9281,0.1768
6.81000000,-7.7454,2.4529,-1.8482,-5.2766,3.3254,-2.4392
6.81500000,-5.5822,3.0847,-2.7974,-1.2509,2.5331,-1.0255
6.82000000,-1.4405,1.8191,-0.7953,-0.6660,1.2747,0.5563
6.82500000,-0.6648,0.3600,0.9925,-1.0384,0.8837,0.4988
6.83000000,-0.9646,-0.3549,0.6268,-0.8441,0.9371,-0.3654
6.83500000,-0.8455,-0.4978,-0.7090,-0.5318,1.0693,-1.3284
6.84000000,-0.5717,-0.4058,-2.1248,-0.2474,1.2219,-2.1648
6.84500000,-0.3152,-0.2107,-3.2805,-0.0473,1.3496,-2.6569
6.85000000,-0.0055,-0.0760,-4.1132,0.0807,1.3247,-2.9010
6.85500000,0.2747,-0.0983,-4.6174,0.1072,1.1530,-2.8285
6.86000000,0.3343,-0.1839,-4.6496,0.0149,1.0559,-2.4492
6.86500000,0.2280,-0.1260,-4.2969,-0.0067,1.0989,-1.9370
6.87000000,0.2290,0.1190,-3.7710,0.1613,1.2251,-1.3750
6.87500000,0.4137,0.4105,-3.2413,0.3196,1.3435,-0.9701
6.88000000,0.6073,0.6556,-2.9146,0.3593,1.5038,-0.7851
6.88500000,0.6840,0.8943,-2.8475,0.3102,1.7289,-0.7570
6.89000000,0.6869,1.1366,-2.9491,0.2758,1.8826,-0.8231
6.89500000,0.6880,1.3233,-3.1132,0.2847,1.9086,-0.9181
6.90000000,0.6951,1.4608,-3.2409,0.3226,1.9404,-0.9493
6.90500000,0.6903,1.5926,-3.2783,0.3520,1.9608,-0.9445
6.91000000,0.6714,1.7424,-3.2518,0.3660,2.0213,-0.9257
6.91500000,0.6415,1.9434,-3.1952,0.3498,2.1411,-0.9244
6.92000000,0.6116,2.1897,-3.1411,0.3116,2.2735,-0.9754
6.92500000,0.5998,2.4220,-3.1290,0.2727,2.3790,-1.0992
6.93000000,0.6290,2.6287,-3.1328,0.2764,2.4927,-1.2203
6.93500000,0.7145,2.8558,-3.0816,0.3019,2.6392,-1.3209
6.94000000,0.8309,3.0847,-2.9731,0.3142,2.6877,-1.4556
6.94500000,0.9423,3.2052,-2.8542,0.2347,2.4656,-1.8488
6.95000000,1.1015,3.0715,-2.6604,0.3773,2.0564,-1.8305
6.95500000,1.3024,2.7134,-2.3393,0.5768,1.6936,-1.9573
6.96000000,1.4167,2.3894,-2.0068,0.7073,1.3581,-1.8992
6.96500000,1.4440,2.2280,-1.7574,0.8214,1.2308,-1.9156
6.97000000,1.4150,2.1414,-1.6373,0.8452,1.0492,-2.1906
6.97500000,1.3033,1.9713,-1.6553,0.8059,0.5586,-2.3448
6.98000000,1.1572,1.6368,-1.7295,0.7523,0.1028,-2.4699
6.98500000,1.0372,1.2062,-1.7798,0.7525,-0.3655,-2.4999
6.99000000,0.9516,0.7926,-1.8081,0.7789,-0.7641,-2.5102
6.99500000,0.8750,0.4828,-1.9041,0.8099,-1.0559,-2.5786
7.00000000,0.7707,0.3025,-2.1062,0.8037,-1.1919,-2.6591
7.00500000,0.6173,0.2239,-2.3205,0.7524,-1.2169,-2.6720
7.01000000,0.4403,0.1978,-2.4364,0.7255,-1.2345,-2.4639
7.01500000,0.2769,0.1714,-2.4361,0.6259,-1.2725,-2.3166
7.02000000,0.1214,0.1264,-2.3780,0.5283,-1.3086,-2.1588
7.02500000,-0.0329,0.0867,-2.2958,0.4594,-1.3288,-1.9877
7.03000000,-0.2435,0.0811,-2.1572,0.2772,-1.3089,-1.7601
7.03500000,-0.5222,0.1145,-1.9796,0.1686,-1.2770,-1.5916
7.04000000,-0.7405,0.1562,-1.8627,0.1170,-1.2591,-1.4917
7.04500000,-0.8797,0.1923,-1.8592,0.1436,-1.2278,-1.5230
7.05000000,-1.0151,0.2729,-1.9577,0.0830,-1.1212,-1.6284
7.05500000,-1.1617,0.4562,-2.0761,0.0126,-0.9325,-1.6990
7.06000000,-1.2709,0.7239,-2.1148,-0.0035,-0.7255,-1.7418
7.06500000,-1.3072,0.9819,-2.1169,-0.0103,-0.5821,-1.8743
7.07000000,-1.3145,1.1606,-2.1887,-0.0188,-0.4919,-2.1006
7.07500000,-1.3393,1.2853,-2.3432,-0.0387,-0.4015,-2.3962
7.08000000,-1.3983,1.3553,-2.5674,-0.0650,-0.4087,-2.7757
7.08500000,-1.4709,1.3136,-2.8655,-0.0435,-0.4803,-3.4038
7.09000000,-1.5611,1.1911,-3.1680,-0.1016,-0.5752,-3.6503
7.09500000,-1.7227,1.0545,-3.4133,-0.2772,-0.6702,-3.8188
7.10000000,-1.9811,0.9269,-3.6502,-0.5801,-0.7507,-4.0066
7.10500000,-2.4120,0.7106,-3.8814,-1.1472,-1.0321,-4.1481
7.11000000,-2.9474,0.2956,-4.0038,-1.7331,-1.3965,-4.1654
7.11500000,-3.3398,-0.2245,-3.9654,-2.0310,-1.7682,-4.0842
7.12000000,-3.6195,-0.7833,-3.8050,-2.2948,-2.2073,-3.9253
7.12500000,-3.9570,-1.3668,-3.5456,-2.5647,-2.5871,-3.6811
7.13000000,-4.4097,-1.7799,-3.2629,-2.9316,-2.7040,-3.3703
7.13500000,-5.0210,-1.8386,-3.0665,-3.4632,-2.5714,-2.9631
7.14000000,-5.7601,-1.6267,-2.8324,-4.0382,-2.3800,-2.3794
7.14500000,-6.5142,-1.3934,-2.3090,-4.5949,-2.2909,-1.5695
7.15000000,-7.2133,-1.2923,-1.4485,-5.0841,-2.3009,-0.5257
7.15500000,-7.7689,-1.2752,-0.3814,-5.3611,-2.2036,0.3452
7.16000000,-8.0590,-1.2634,0.7500,-5.4723,-1.9519,1.1455
7.16500000,-8.0645,-1.2879,1.7136,-5.4437,-1.6995,1.6184
7.17000000,-7.8653,-1.2729,2.1719,-5.3350,-1.2727,1.5996
7.17500000,-7.5495,-1.0410,2.1472,-5.1216,-0.7070,1.4594
7.18000000,-7.1358,-0.6726,2.1006,-4.8126,-0.0385,1.4579
7.18500000,-6.6551,-0.5151,2.2197,-4.4845,0.0386,1.4334
7.19000000,-6.3424,-0.8114,2.4044,-4.4675,-0.1613,1.5287
7.19500000,-6.3176,-1.6264,2.9613,-4.5268,-0.6623,2.3595
7.20000000,-6.5992,-2.8369,3.6580,-5.1101,-1.2678,2.6071
7.20500000,-6.0941,-3.8547,3.7727,-3.2568,-1.6166,3.2877
7.21000000,-4.4426,-2.7773,2.2695,-3.2206,1.2848,0.7304
7.21500000,-2.6439,3.9696,-4.0504,-1.9267,10.1965,-7.5180
7.22000000,-4.4984,6.0507,-13.5218,-8.7449,-0.7744,-12.7217
7.22500000,-7.2774,-2.7006,-13.3791,-4.1792,-3.9789,-2.1087
7.23000000,-1.8872,-4.6171,-3.3530,3.1074,-0.2515,1.6551
7.23500000,2.6553,0.3685,0.7827,-0.6226,1.6026,-0.5266
7.24000000,-1.1701,0.7163,-1.5313,-3.2912,0.8606,-1.5208
7.24500000,-3.1235,-0.9226,-2.4597,-0.8255,-0.9517,-1.2556
7.25000000,-0.7436,-0.9938,-1.7364,0.3844,0.3214,-0.6086
7.25500000,0.5955,0.0680,-1.0466,0.1499,0.5918,-0.7604
7.26000000,0.1861,0.4997,-1.0878,-0.4323,0.7244,-0.9216
7.26500000,-0.5320,0.4286,-1.2486,-0.8110,0.6458,-0.8379
7.27000000,-0.9390,0.3866,-1.1228,-0.7024,0.3846,-0.6504
7.27500000,-0.8710,0.3643,-0.8837,-0.4478,0.4531,-0.4723
7.28000000,-0.7264,0.4441,-0.7828,-0.4241,0.4012,-0.5182
7.28500000,-0.5827,0.5479,-0.8566,-0.1637,0.5429,-0.5331
7.29000000,-0.3170,0.7360,-0.8925,-0.0395,0.5953,-0.5249
7.29500000,-0.1740,0.7171,-0.9361,-0.0860,0.3523,-0.6522
7.30000000,-0.1047,0.4640,-1.0218,0.1069,0.3025,-0.6659
7.30500000,0.0138,0.3517,-1.0020,0.0979,0.2996,-0.6177
7.31000000,-0.0169,0.3791,-0.9579,0.0197,0.4387,-0.6027
7.31500000,-0.1162,0.5012,-0.9044,-0.0080,0.7079,-0.4453
7.32000000,-0.0597,0.4663,-0.9123,0.1354,0.2325,-0.6645
7.32500000,0.0039,0.1513,-1.0349,-0.1330,0.0158,-0.5183
7.33000000,-0.1199,0.1124,-0.9752,-0.3485,0.4260,-0.3283
7.33500000,-0.2445,0.3613,-0.8576,-0.4165,0.7942,-0.4227
7.34000000,-0.4034,0.6975,-0.8967,-0.5680,1.4057,-0.4920
7.34500000,-0.5137,0.8324,-0.9281,-0.1926,1.1145,-0.4547
7.35000000,-0.3111,0.4758,-0.9269,-0.0152,0.8457,-0.4578
7.35500000,-0.1544,0.2456,-0.8782,-0.1905,1.0086,-0.4157
7.36000000,-0.2268,0.2654,-0.7853,-0.3439,0.8526,-0.5038
7.36500000,-0.2881,0.2198,-0.7361,-0.5098,0.6489,-0.5585
7.37000000,-0.1978,0.1939,-0.7163,-0.3906,0.5071,-0.5438
7.37500000,0.0446,0.2669,-0.7302,-0.2276,0.5684,-0.4294
7.38000000,-0.1059,0.2719,-0.8822,-0.8412,0.4171,-0.5786
7.38500000,-0.5369,0.2492,-1.0643,-0.6545,0.9154,-0.6244
7.39000000,-0.1178,0.4597,-1.2344,0.2359,1.1806,-0.8593
7.39500000,0.6811,0.5186,-1.5379,0.3103,1.3609,-0.9182
7.40000000,0.7560,0.4216,-1.7182,0.0638,1.7658,-0.8468
7.40500000,0.4647,0.5392,-1.7939,-0.0084,1.8406,-0.9335
7.41000000,0.2412,0.7069,-2.0375,-0.1017,1.9767,-1.0731
7.41500000,0.1043,0.8889,-2.4841,-0.1415,2.1275,-1.5298
7.42000000,0.1057,1.2362,-3.1736,-0.0089,2.5303,-2.0806
7.42500000,-0.0060,1.1912,-3.5710,-0.0911,1.7698,-1.8359
7.43000000,-0.5655,0.7024,-2.8608,-0.7072,1.8561,-0.1617
7.43500000,-1.0500,0.6669,-1.3723,-0.9318,1.9309,0.9364
7.44000000,-3.5304,1.2949,-1.0694,-6.2114,2.8978,-0.3836
7.44500000,-7.1824,2.5144,-2.4021,-5.5319,3.5561,-1.8995
7.45000000,-5.6533,3.4455,-3.0866,-1.5071,3.2752,-1.8253
7.45500000,-1.6979,3.2430,-2.1669,-0.8829,2.8927,-0.8584
7.46000000,-0.8636,2.2500,-0.6542,-1.3631,1.8361,-0.1314
7.46500000,-1.1285,1.0149,0.3340,-1.0782,1.1451,-0.0944
7.47000000,-0.8128,0.0592,0.2579,-0.7633,0.9427,-0.6653
7.47500000,-0.5185,-0.3880,-0.6481,-0.5876,1.0488,-1.4620
7.48000000,-0.3903,-0.4200,-1.8651,-0.3460,1.1853,-2.1840
7.48500000,-0.1980,-0.3002,-2.9533,-0.1743,1.2490,-2.6698
7.49000000,0.0306,-0.2373,-3.7840,-0.0832,1.2360,-3.0182
7.49500000,0.1751,-0.2702,-4.3889,-0.0341,1.1404,-3.1548
7.50000000,0.2337,-0.3840,-4.7244,0.0156,0.9138,-3.0654
7.50500000,0.2549,-0.5088,-4.7638,0.0857,0.7134,-2.7709
7.51000000,0.3165,-0.5457,-4.5114,0.2554,0.6185,-2.2458
7.51500000,0.5186,-0.5003,-4.0104,0.5127,0.5961,-1.6186
7.52000000,0.7770,-0.3979,-3.5112,0.6377,0.7079,-1.1960
7.52500000,0.8863,-0.0525,-3.3038,0.6006,1.1675,-1.0645
7.53000000,0.8395,0.5314,-3.3896,0.5420,1.4438,-1.0952
7.53500000,0.7680,0.9968,-3.5568,0.5154,1.5816,-1.1805
7.54000000,0.6959,1.2870,-3.6728,0.4583,1.6956,-1.2301
7.54500000,0.6024,1.6312,-3.7550,0.4220,1.8370,-1.2806
7.55000000,0.5367,2.0781,-3.7751,0.4126,2.0644,-1.2065
7.55500000,0.5261,2.5031,-3.5871,0.2879,2.1786,-1.0730
7.56000000,0.6082,2.8705,-3.1385,0.3009,2.3440,-0.8491
7.56500000,0.7753,3.1549,-2.6702,0.2399,2.3864,-0.8680
7.57000000,0.8872,3.2435,-2.4752,0.0511,2.2163,-1.3278
7.57500000,0.9362,3.1313,-2.4751,0.1007,1.9747,-1.5451
7.58000000,1.0045,2.9253,-2.4139,0.2448,1.7358,-1.6255
7.58500000,1.0987,2.7372,-2.1943,0.4488,1.5442,-1.5901
7.59000000,1.1978,2.6083,-1.8896,0.6324,1.4028,-1.5666
7.59500000,1.2473,2.5295,-1.6539,0.7275,1.2935,-1.6402
7.60000000,1.2265,2.4593,-1.5697,0.7763,1.1163,-1.8101
7.60500000,1.1783,2.3241,-1.6220,0.8653,0.8552,-2.1722
7.61000000,1.1117,2.0890,-1.7704,0.8682,0.3625,-2.3907
7.61500000,1.0030,1.7720,-1.9617,0.8540,-0.0513,-2.5706
7.62000000,0.8496,1.3031,-2.1585,0.8175,-0.6912,-2.7134
7.62500000,0.6751,0.7546,-2.3410,0.7891,-1.0317,-2.7842
7.63000000,0.5086,0.4447,-2.4774,0.7987,-1.0878,-2.7121
7.63500000,0.3499,0.3586,-2.5473,0.7147,-1.1483,-2.6300
7.64000000,0.1924,0.2680,-2.5265,0.6143,-1.2393,-2.4559
7.64500000,0.0414,0.1441,-2.4372,0.5316,-1.3331,-2.2857
7.65000000,-0.1654,0.0407,-2.3340,0.3373,-1.3780,-2.0955
7.65500000,-0.4502,0.0115,-2.2378,0.1896,-1.3550,-1.8703
7.66000000,-0.6854,0.0691,-2.1703,0.2010,-1.2825,-1.7617
7.66500000,-0.8432,0.2002,-2.1324,0.1350,-1.1528,-1.7014
7.67000000,-1.0125,0.4136,-2.1317,0.0230,-0.9556,-1.7127
7.67500000,-1.2034,0.7024,-2.1555,-0.0892,-0.7274,-1.7344
7.68000000,-1.3508,1.0513,-2.1366,-0.1413,-0.4379,-1.8398
7.68500000,-1.4093,1.3910,-2.1078,-0.1242,-0.2616,-1.9910
7.69000000,-1.4288,1.6140,-2.1608,-0.1207,-0.1578,-2.2235
7.69500000,-1.4586,1.7062,-2.2716,-0.0637,-0.1456,-2.6866
7.70000000,-1.4914,1.6727,-2.4530,-0.0168,-0.2280,-3.0857
7.70500000,-1.5631,1.5160,-2.7653,-0.0589,-0.3891,-3.4270
7.71000000,-1.7076,1.2662,-3.1208,-0.1485,-0.6028,-3.6506
7.71500000,-1.9166,0.9874,-3.4269,-0.3162,-0.7763,-3.8412
7.72000000,-2.1943,0.7386,-3.6812,-0.5839,-0.9441,-3.9979
7.72500000,-2.5118,0.5053,-3.8656,-0.9099,-1.1074,-4.0878
7.73000000,-2.8926,0.0493,-3.9410,-1.5584,-1.7169,-4.1022
7.73500000,-3.3244,-0.7598,-3.9007,-1.9244,-2.3283,-4.0358
7.74000000,-3.6678,-1.5489,-3.8090,-2.1639,-2.7428,-3.9874
7.74500000,-3.9877,-2.0746,-3.7350,-2.4718,-3.0089,-3.8868
7.75000000,-4.4389,-2.3700,-3.6571,-2.8823,-3.1013,-3.5375
7.75500000,-5.0080,-2.3917,-3.5037,-3.3809,-2.9690,-3.0451
7.76000000,-5.6329,-2.2047,-3.1441,-4.0312,-2.8335,-2.0720
7.76500000,-6.2584,-2.0326,-2.4355,-4.5592,-2.7910,-1.1851
7.77000000,-6.9478,-1.9852,-1.0767,-5.2277,-2.8102,0.4619
7.77500000,-7.6005,-1.9757,0.6645,-5.5447,-2.7667,1.5045
7.78000000,-7.8688,-1.8938,1.7159,-5.5382,-2.4908,1.7834
7.78500000,-7.7997,-1.6867,1.9409,-5.4611,-1.9761,1.8289
7.79000000,-7.6511,-1.3411,1.9221,-5.3413,-1.3856,1.7867
7.79500000,-7.4179,-0.8675,1.8663,-5.0851,-0.4910,1.6577
7.80000000,-7.0316,-0.3292,1.8532,-4.7482,0.0903,1.5549
7.80500000,-6.5728,0.0733,1.9154,-4.4648,0.4263,1.4243
7.81000000,-6.1803,0.1511,1.9989,-4.2559,0.5345,1.2471
7.81500000,-6.0263,-0.1959,2.2173,-4.3780,0.2706,1.4014
7.82000000,-6.0818,-1.2211,2.9796,-4.4247,-0.5582,2.2839
7.82500000,-6.5033,-3.6093,4.4958,-5.3016,-2.9998,3.8405
7.83000000,-5.1915,-4.9574,4.8777,-1.0941,-1.0280,2.5983
7.83500000,-1.8042,-2.0487,1.7013,-0.3426,2.4405,-0.9422
7.84000000,-0.3180,1.9640,-3.3514,-0.8978,3.9285,-3.7389
7.84500000,-0.5103,6.1755,-7.5671,-1.6991,9.1943,-6.1177
7.85000000,-4.2311,6.9862,-12.1436,-9.1796,2.2743,-10.8979
7.85500000,-8.7894,0.4924,-12.1262,-5.6721,-1.5425,-3.3205
7.86000000,-3.3653,-3.1802,-3.5956,3.7751,-1.1950,2.3474
7.86500000,3.4861,-1.1811,1.5035,0.9155,1.5168,0.2079
7.87000000,0.3229,0.2552,-1.2133,-3.1499,1.4821,-2.0697
7.87500000,-2.9162,-0.0947,-2.9897,-0.9748,-0.3917,-1.1274
7.88000000,-0.8706,-0.6433,-1.8564,0.4607,0.1505,-0.6169
7.88500000,0.4987,-0.1755,-1.1343,-0.0655,0.3253,-0.9827
7.89000000,-0.1832,0.2071,-1.2129,-0.8513,0.6532,-0.7850
7.89500000,-1.0985,0.4740,-1.1267,-1.2794,0.9468,-0.7733
7.90000000,-1.4153,0.6587,-1.0814,-0.9621,0.4939,-0.7500
7.90500000,-1.0064,0.4353,-1.0143,-0.3878,0.2614,-0.6508
7.91000000,-0.4343,0.3678,-0.9334,-0.1075,0.3537,-0.7336
7.91500000,-0.1542,0.5665,-0.9692,-0.0347,0.6198,-0.7140
7.92000000,-0.0178,0.7893,-0.9319,0.1140,0.6401,-0.5945
7.92500000,0.0259,0.7654,-0.8853,-0.0569,0.3907,-0.6299
7.93000000,-0.2051,0.5340,-0.9303,-0.3161,0.2416,-0.6263
7.93500000,-0.4383,0.3874,-0.9365,-0.2739,0.2502,-0.5919
7.94000000,-0.4171,0.3300,-0.9033,-0.1934,0.1703,-0.6033
7.94500000,-0.3063,0.2858,-0.9300,-0.1101,0.2711,-0.6361
7.95000000,-0.1422,0.3540,-0.9750,0.1037,0.4778,-0.5852
7.95500000,0.0501,0.5874,-0.9278,0.1712,0.8038,-0.4542
7.96000000,0.0809,0.6964,-0.9178,0.0867,0.6744,-0.5298
7.96500000,-0.0434,0.4865,-1.0016,0.0341,0.6489,-0.4625
7.97000000,-0.1758,0.3387,-0.9806,-0.0157,0.8718,-0.4441
7.97500000,-0.2517,0.3963,-0.8898,-0.0622,1.0023,-0.3936
7.98000000,-0.2219,0.4280,-0.8361,-0.0354,1.0839,-0.3885
7.98500000,-0.1435,0.3261,-0.8632,-0.1062,0.9626,-0.5135
7.99000000,-0.1559,0.1833,-0.8821,-0.2351,0.9920,-0.4599
7.99500000,-0.2171,0.1513,-0.7673,-0.3418,0.9283,-0.4153
8.00000000,-0.1057,0.1633,-0.6954,-0.1665,0.7530,-0.4914
8.00500000,0.1582,0.2675,-0.8242,-0.2018,0.8129,-0.6098
8.01000000,0.2027,0.3798,-1.0256,-0.3049,0.6500,-0.5681
8.01500000,-0.0065,0.2752,-1.0907,-0.3990,0.8895,-0.4343
8.02000000,-0.0918,0.2698,-1.2836,-0.2727,1.2701,-0.9126
8.02500000,0.1719,0.4166,-1.6611,0.1062,1.6024,-1.0134
8.03000000,0.5648,0.5452,-1.7701,0.2291,1.9107,-0.9470
8.03500000,0.6786,0.7510,-1.9276,0.1841,2.0119,-1.1612
8.04000000,0.2170,0.9271,-2.2451,-0.5411,2.1089,-1.0484
8.04500000,-0.1841,1.1637,-2.7635,-0.0565,2.4200,-1.9712
8.05000000,0.2180,1.2726,-3.4995,0.4066,2.1068,-1.9028
8.05500000,0.3002,0.9436,-3.1097,-0.3304,1.8381,-0.4544
8.06000000,-0.6228,0.5571,-1.5802,-1.4060,1.6158,0.7880
8.06500000,-3.3057,1.3246,-1.1493,-5.4554,3.5162,-0.1802
8.07000000,-5.4131,3.2003,-2.3191,-3.1442,4.3121,-1.9328
8.07500000,-3.4090,3.8552,-2.6749,-1.1963,3.2233,-1.1667
8.08000000,-1.2787,2.9455,-1.2836,-1.4322,2.3426,-0.1451
8.08500000,-1.2132,1.7792,0.1127,-1.3180,1.5707,0.0872
8.09000000,-0.9723,0.7534,0.3566,-0.9267,1.2310,-0.3690
8.09500000,-0.4995,0.0714,-0.3566,-0.5028,1.1301,-1.1145
8.10000000,-0.2296,-0.2218,-1.4797,-0.2947,1.2163,-1.8823
8.10500000,-0.1449,-0.1925,-2.6163,-0.0392,1.3780,-2.5131
8.11000000,-0.0314,-0.0023,-3.5372,0.1424,1.4961,-2.8728
8.11500000,0.0968,0.1220,-4.1353,0.1487,1.4995,-2.9944
8.12000000,0.1365,0.1137,-4.4630,0.0694,1.4231,-2.8836
8.12500000,0.1512,0.0613,-4.5522,0.0092,1.1993,-2.6445
8.13000000,0.2293,0.0393,-4.3366,0.1151,1.0653,-2.2205
8.13500000,0.4560,0.0200,-3.8910,0.3751,0.9528,-1.7175
8.14000000,0.7568,0.0237,-3.4622,0.5496,0.9917,-1.3815
8.14500000,0.9393,0.2296,-3.2530,0.5987,1.3132,-1.1041
8.15000000,0.9823,0.6444,-3.2551,0.6408,1.5538,-1.0810
8.15500000,0.9703,1.0084,-3.3476,0.6352,1.6579,-1.0892
8.16000000,0.9288,1.2374,-3.4388,0.6076,1.7149,-1.0998
8.16500000,0.8756,1.4207,-3.4759,0.6094,1.7487,-1.0762
8.17000000,0.8296,1.5862,-3.4555,0.5979,1.7728,-1.0548
8.17500000,0.7887,1.7752,-3.4286,0.5962,1.8793,-1.0793
8.18000000,0.7541,2.0496,-3.4236,0.5329,2.0005,-1.2176
8.18500000,0.7260,2.3885,-3.3952,0.4624,2.1853,-1.3045
8.19000000,0.7189,2.7257,-3.2798,0.3744,2.3147,-1.3512
8.19500000,0.7865,2.9771,-3.0763,0.3564,2.2861,-1.4105
8.20000000,0.9477,3.0667,-2.8563,0.3644,2.1560,-1.4914
8.20500000,1.1278,2.9413,-2.6352,0.3855,1.8375,-1.5215
8.21000000,1.2492,2.6236,-2.3892,0.4283,1.4860,-1.7346
8.21500000,1.3249,2.3041,-2.1240,0.6181,1.1196,-1.6752
8.22000000,1.4080,2.0965,-1.8592,0.7965,0.9262,-1.6449
8.22500000,1.4576,1.9662,-1.6828,0.8898,0.7795,-1.7168
8.23000000,1.4153,1.8784,-1.6575,0.9205,0.6072,-1.8705
8.23500000,1.2935,1.7645,-1.7458,0.8659,0.3503,-2.0641
8.24000000,1.1023,1.5657,-1.8806,0.7616,0.0226,-2.2235
8.24500000,0.9050,1.2901,-1.9705,0.7199,-0.3604,-2.2734
8.25000000,0.7787,0.9869,-1.9695,0.7753,-0.8068,-2.2231
8.25500000,0.6880,0.7228,-1.9595,0.7485,-0.9607,-2.2061
8.26000000,0.5647,0.5463,-2.0452,0.6855,-1.0356,-2.2583
8.26500000,0.4018,0.4592,-2.2063,0.6027,-1.0661,-2.2914
8.27000000,0.2304,0.4199,-2.3243,0.5262,-1.0912,-2.2328
8.27500000,0.0772,0.3905,-2.3409,0.4676,-1.1125,-2.1234
8.28000000,-0.0712,0.3670,-2.2901,0.3996,-1.1268,-1.9855
8.28500000,-0.2408,0.3650,-2.1974,0.3393,-1.1106,-1.8313
8.29000000,-0.4675,0.4580,-2.0437,0.2559,-0.9542,-1.5928
8.29500000,-0.7396,0.6833,-1.8724,0.1307,-0.7637,-1.5072
8.30000000,-0.9512,0.9347,-1.7824,0.0645,-0.6147,-1.5035
8.30500000,-1.0835,1.1372,-1.7737,-0.0004,-0.4877,-1.5707
8.31000000,-1.1838,1.3077,-1.8029,-0.0339,-0.3759,-1.6743
8.31500000,-1.2404,1.4387,-1.8666,-0.0238,-0.3138,-1.8364
8.32000000,-1.2646,1.5083,-1.9986,0.0016,-0.2901,-2.0841
8.32500000,-1.3288,1.5594,-2.2158,-0.0171,-0.2218,-2.5127
8.33000000,-1.4454,1.5950,-2.4410,0.0544,-0.2443,-2.7700
8.33500000,-1.5290,1.5029,-2.5927,0.1172,-0.4006,-2.9764
8.34000000,-1.5965,1.2701,-2.7186,0.1158,-0.5897,-3.2148
8.34500000,-1.7085,0.9953,-2.8980,0.1108,-0.7837,-3.4171
8.35000000,-1.8553,0.7460,-3.1407,0.0342,-0.9258,-3.6223
8.35500000,-2.0707,0.5706,-3.4427,-0.1528,-1.0034,-3.8578
8.36000000,-2.3516,0.4662,-3.7595,-0.4075,-1.0601,-4.0648
8.36500000,-2.6500,0.3453,-4.0196,-0.7470,-1.1969,-4.2158
8.37000000,-2.9674,0.0886,-4.1900,-1.1379,-1.4790,-4.3015
8.37500000,-3.2863,-0.3622,-4.2509,-1.5085,-1.8906,-4.2936
8.38000000,-3.5612,-0.9752,-4.1931,-1.8100,-2.3832,-4.2126
8.38500000,-3.8097,-1.6582,-4.0548,-2.1055,-2.8590,-4.0941
8.39000000,-4.0994,-2.2508,-3.8761,-2.4774,-3.1710,-3.7839
8.39500000,-4.4619,-2.6102,-3.6540,-2.8802,-3.3024,-3.2879
8.40000000,-4.9115,-2.6954,-3.3688,-3.3779,-3.2327,-2.7218
8.40500000,-5.4472,-2.5358,-2.9716,-3.9302,-3.0336,-2.0644
8.41000000,-6.0481,-2.2639,-2.3991,-4.5108,-2.8638,-1.3155
8.41500000,-6.6664,-2.0574,-1.6103,-5.0170,-2.7965,-0.4418
8.42000000,-7.1624,-1.9876,-0.5977,-5.2803,-2.8139,0.5354
8.42500000,-7.4405,-1.9936,0.5158,-5.3806,-2.7038,1.4162
8.43000000,-7.5339,-1.8060,1.5488,-5.3232,-2.0518,2.1990
8.43500000,-7.4610,-1.2445,2.1804,-5.1243,-1.2361,2.1982
8.44000000,-7.2197,-0.5652,2.1715,-4.8767,-0.2469,1.8337
8.44500000,-6.8294,-0.0301,1.8974,-4.5884,0.2924,1.5277
8.45000000,-6.3795,0.2555,1.7116,-4.3634,0.5467,1.1877
8.45500000,-5.9819,0.1649,1.5422,-4.1652,0.4777,0.8065
8.46000000,-5.6313,-0.2212,1.3911,-3.9120,0.3673,0.5580
8.46500000,-5.2566,-0.6290,1.3287,-3.5991,0.3615,0.4036
8.47000000,-5.0114,-1.0094,1.5828,-3.6480,0.2563,0.8672
8.47500000,-4.7889,-2.6087,3.0529,-3.2841,-2.1844,2.9917
8.48000000,-3.4312,-3.9892,3.8010,-1.3447,-0.6690,1.8607
8.48500000,-1.1763,-1.7779,0.8404,-0.8109,2.2263,-1.2844
8.49000000,0.0101,1.6902,-3.3408,-1.3092,3.6759,-3.0690
8.49500000,-1.9852,3.8216,-8.6518,-5.5955,4.9868,-9.5263
8.50000000,-7.0048,2.8184,-12.2807,-8.6203,-0.0189,-5.9441
8.50500000,-5.7342,-0.3831,-5.5314,1.2415,-1.5690,3.2985
8.51000000,1.6072,-0.9869,1.4942,1.4614,0.4044,-0.1680
8.51500000,1.3159,-0.7298,-1.1174,-2.8194,-0.3725,-2.1533
8.52000000,-2.5997,-1.0898,-3.1576,-1.8249,-0.2500,-1.3000
8.52500000,-1.4130,-0.6815,-1.9285,0.2313,0.0350,-1.0032
8.53000000,0.5166,-0.4744,-1.6679,0.1632,-0.1094,-1.3633
8.53500000,0.1842,-0.2257,-1.6452,-0.6691,0.6480,-0.8956
8.54000000,-0.8059,0.3998,-1.1192,-1.0225,0.7415,-0.4702
8.54500000,-1.1646,0.4286,-0.8167,-0.9359,0.3006,-0.7138
8.55000000,-0.9663,0.0159,-1.0181,-0.5887,0.0635,-0.8451
8.55500000,-0.5870,-0.1115,-1.1005,-0.2786,0.1165,-0.8177
8.56000000,-0.2956,0.0617,-1.0319,-0.1848,0.3587,-0.7475
8.56500000,-0.0797,0.4357,-0.9661,0.1202,0.5915,-0.6771
8.57000000,0.1374,0.7334,-0.9333,0.1532,0.5797,-0.6641
8.57500000,0.0906,0.7011,-0.9888,-0.0511,0.4050,-0.7600
8.58000000,-0.1449,0.4446,-1.0503,-0.1291,0.1736,-0.7425
8.58500000,-0.3394,0.1395,-1.0289,-0.2841,0.0042,-0.7379
8.59000000,-0.4435,-0.0065,-0.9925,-0.1679,0.2219,-0.6832
8.59500000,-0.3308,0.0619,-0.9884,0.0186,0.3179,-0.6655
8.60000000,-0.1542,0.3066,-0.9106,0.0742,0.7749,-0.4639
8.60500000,-0.0786,0.5514,-0.8265,0.0960,0.6208,-0.5584
8.61000000,-0.0207,0.5181,-0.9073,0.1726,0.8474,-0.5694
8.61500000,0.0256,0.4452,-0.9712,0.1997,0.8771,-0.5187
8.62000000,-0.0318,0.3694,-0.9220,0.0575,0.7267,-0.4731
8.62500000,-0.1976,0.2390,-0.8667,-0.1240,0.7392,-0.4679
8.63000000,-0.2643,0.2029,-0.8356,-0.1572,0.7959,-0.5012
8.63500000,-0.2023,0.2015,-0.8040,-0.2725,0.9011,-0.5305
8.64000000,-0.1955,0.2017,-0.7753,-0.3363,0.8697,-0.5626
8.64500000,-0.0943,0.1979,-0.7816,-0.1871,0.6965,-0.5525
8.65000000,0.1646,0.2170,-0.7987,-0.1008,0.5871,-0.4802
8.65500000,0.2304,0.2923,-0.9348,-0.2956,0.6674,-0.6054
8.66000000,0.1190,0.3911,-1.2007,-0.2347,0.8522,-0.7448
8.66500000,-0.1340,0.3480,-1.4823,-0.6445,0.8129,-0.9759
8.67000000,-0.2745,0.3105,-1.4888,-0.1190,1.4108,-0.6845
8.67500000,0.1441,0.4174,-1.2967,0.2293,1.5186,-0.7329
8.68000000,0.4037,0.2994,-1.3907,0.0211,1.4428,-0.7570
8.68500000,0.2820,0.3126,-1.6007,0.1653,1.8957,-0.8522
8.69000000,0.3889,0.7663,-1.9173,0.3745,2.1293,-1.1320
8.69500000,0.2928,1.0587,-2.3286,-0.2280,2.1602,-1.2055
8.70000000,0.0141,1.2924,-2.9285,0.0303,2.5640,-2.0046
8.70500000,-0.2456,1.5367,-2.9100,-0.6390,2.3943,-0.3875
8.71000000,-1.2565,1.0625,-1.0984,-2.0245,1.5605,1.5241
8.71500000,-4.0158,0.4812,0.2279,-5.7452,1.8122,1.1416
8.72000000,-6.7567,1.2268,-1.0972,-5.2717,3.0468,-1.2596
8.72500000,-5.2757,2.4958,-2.8680,-1.6627,2.7918,-1.6808
8.73000000,-2.0294,2.7748,-2.2750,-1.4224,2.8654,-0.2790
8.73500000,-1.4998,2.2780,-0.2774,-1.8858,2.1459,0.6295
8.74000000,-1.7520,1.3704,0.5445,-1.4224,1.5131,0.1073
8.74500000,-1.2394,0.4773,-0.2953,-1.0385,1.4543,-0.9058
8.75000000,-0.8678,0.2461,-1.6638,-0.8129,1.6668,-1.7307
8.75500000,-0.7110,0.4200,-2.7693,-0.4848,1.7883,-2.2931
8.76000000,-0.4887,0.5836,-3.5641,-0.1938,1.8791,-2.5997
8.76500000,-0.2753,0.6969,-4.1467,-0.1810,1.9264,-2.8415
8.77000000,-0.1676,0.7019,-4.5743,-0.2328,1.8314,-2.9831
8.77500000,-0.1335,0.5794,-4.8098,-0.2736,1.7083,-2.9360
8.78000000,-0.0755,0.4585,-4.7545,-0.1896,1.5670,-2.6363
8.78500000,0.1392,0.3967,-4.3876,0.0817,1.4170,-2.1527
8.79000000,0.4997,0.3440,-3.8808,0.3398,1.3307,-1.7090
8.79500000,0.8132,0.3232,-3.4876,0.4864,1.3322,-1.4148
8.80000000,0.9990,0.4225,-3.3174,0.5836,1.4943,-1.2665
8.80500000,1.0951,0.6506,-3.3511,0.5978,1.6613,-1.1593
8.81000000,1.1020,0.9188,-3.5416,0.6209,1.7851,-1.2798
8.81500000,1.0511,1.1981,-3.8023,0.6292,1.9106,-1.4373
8.82000000,0.9877,1.4908,-4.0450,0.6230,2.0040,-1.5722
8.82500000,0.9264,1.7665,-4.2266,0.6391,2.0718,-1.6651
8.83000000,0.8921,2.0549,-4.3042,0.6432,2.1961,-1.6870
8.83500000,0.8904,2.4137,-4.2051,0.6148,2.3719,-1.6153
8.84000000,0.8974,2.7925,-3.9194,0.5072,2.4828,-1.5121
8.84500000,0.9304,3.0557,-3.5324,0.4281,2.4378,-1.4183
8.85000000,1.0470,3.1376,-3.1290,0.4059,2.2977,-1.3545
8.85500000,1.2008,3.0875,-2.7731,0.3592,2.1386,-1.3509
8.86000000,1.3004,2.9635,-2.5357,0.3569,1.9355,-1.6577
8.86500000,1.3624,2.7783,-2.4016,0.4931,1.7863,-1.7455
8.87000000,1.4190,2.5911,-2.2447,0.6711,1.4011,-1.7409
8.87500000,1.4574,2.4655,-1.9897,0.8411,1.2480,-1.6647
8.88000000,1.4772,2.3563,-1.6405,0.9845,1.0681,-1.5223
8.88500000,1.4798,2.2086,-1.3510,1.0722,0.8601,-1.6031
8.89000000,1.4380,2.0024,-1.3309,1.0854,0.5692,-1.8620
8.89500000,1.3260,1.7143,-1.5519,1.0402,0.2235,-2.1997
8.90000000,1.1608,1.3809,-1.8755,1.0798,-0.2761,-2.5653
8.90500000,1.0061,1.0525,-2.1650,1.0906,-0.6731,-2.7059
8.91000000,0.8992,0.7469,-2.3171,1.0997,-0.9619,-2.7256
8.91500000,0.7433,0.4362,-2.3835,0.9483,-1.2274,-2.7302
8.92000000,0.4913,0.1278,-2.4438,0.8240,-1.3958,-2.6140
8.92500000,0.2775,-0.0762,-2.5020,0.7510,-1.4769,-2.5590
8.93000000,0.1267,-0.1688,-2.5552,0.6686,-1.5154,-2.4893
8.93500000,-0.0389,-0.1964,-2.5756,0.5887,-1.5023,-2.3702
8.94000000,-0.2206,-0.1636,-2.5233,0.4971,-1.4598,-2.2139
8.94500000,-0.4147,-0.0781,-2.4383,0.3828,-1.3705,-2.1092
8.95000000,-0.6066,0.0759,-2.3759,0.2864,-1.2207,-2.0336
8.95500000,-0.7762,0.2998,-2.3186,0.1730,-1.0391,-1.9719
8.96000000,-0.8929,0.4818,-2.2693,0.1329,-1.0041,-1.9786
8.96500000,-0.9484,0.5984,-2.2661,0.0585,-0.8693,-2.0515
8.97000000,-1.0243,0.7845,-2.3044,-0.0508,-0.6986,-2.1759
8.97500000,-1.1258,1.0066,-2.3511,-0.1182,-0.5660,-2.3013
8.98000000,-1.1916,1.1538,-2.3854,-0.1500,-0.5100,-2.4437
8.98500000,-1.2346,1.2388,-2.4575,-0.1595,-0.4471,-2.6733
8.99000000,-1.2979,1.3555,-2.6391,-0.1946,-0.3084,-2.9988
8.99500000,-1.4037,1.4721,-2.9020,-0.2448,-0.3003,-3.3525
9.00000000,-1.5106,1.4155,-3.1570,-0.2443,-0.4523,-3.6320
9.00500000,-1.6181,1.1671,-3.3582,-0.2912,-0.6860,-3.7583
9.01000000,-1.8609,0.7920,-3.5093,-0.5623,-1.0177,-3.8443
9.01500000,-2.2244,0.4229,-3.5996,-0.8095,-1.1692,-3.8630
9.02000000,-2.5364,0.2373,-3.6236,-1.0585,-1.2112,-3.8702
9.02500000,-2.7922,0.1431,-3.6373,-1.3563,-1.3172,-3.9080
9.03000000,-3.0664,-0.0480,-3.6741,-1.6970,-1.5223,-3.9470
9.03500000,-3.3623,-0.3756,-3.6739,-2.0140,-1.8184,-3.9029
9.04000000,-3.6697,-0.7770,-3.6358,-2.3464,-2.0949,-3.8921
9.04500000,-4.0240,-1.1412,-3.6725,-2.6454,-2.3126,-3.8195
9.05000000,-4.4769,-1.4264,-3.7431,-3.0052,-2.4917,-3.5731
9.05500000,-5.0235,-1.6816,-3.6017,-3.4035,-2.6918,-3.0262
9.06000000,-5.6012,-1.9004,-3.0929,-3.8034,-2.7942,-2.2419
9.06500000,-6.1703,-2.0243,-2.2998,-4.2423,-2.8505,-1.3781
9.07000000,-6.7309,-2.0700,-1.4270,-4.6875,-2.8587,-0.6034
9.07500000,-7.2635,-2.0481,-0.6395,-5.1332,-2.8050,0.0289
9.08000000,-7.6875,-1.9752,0.0023,-5.4552,-2.7534,0.5956
9.08500000,-7.9199,-1.9288,0.5026,-5.7477,-2.3862,0.9104
9.09000000,-7.9482,-1.9060,0.8829,-5.7418,-2.1103,1.1604
9.09500000,-7.7754,-1.7833,1.1522,-5.5732,-1.6907,1.3017
9.10000000,-7.3137,-1.2270,1.2840,-5.0568,-0.6674,1.2761
9.10500000,-6.6686,-0.3022,1.3357,-4.7330,0.0614,1.2382
9.11000000,-6.3092,-0.0483,1.9690,-4.7970,-0.2998,2.2556
9.11500000,-7.5085,-1.7726,4.1699,-7.2669,-2.5462,4.6656
9.12000000,-9.5158,-4.3146,6.7337,-6.8169,-2.6114,5.8215
9.12500000,-9.0588,-3.8381,6.1325,-5.2913,0.5521,2.9664
9.13000000,-5.4921,0.2533,0.1627,-1.9305,4.0791,-3.8417
9.13500000,-1.3374,4.1401,-7.2714,-0.1680,5.3045,-6.6476
9.14000000,0.0742,5.0887,-9.0698,-1.8250,4.4469,-4.0789
9.14500000,-2.3731,5.4912,-9.3145,-5.3609,6.5390,-8.7517
9.15000000,-6.4320,2.8953,-11.5709,-7.4958,-1.7724,-6.8965
9.15500000,-4.2372,-3.4906,-6.5300,2.4935,-3.8612,2.0110
9.16000000,2.8833,-3.4694,0.7791,2.6668,1.9455,0.9782
9.16500000,2.1018,0.5189,-0.2809,-2.3747,1.8710,-1.6753
9.17000000,-2.6448,0.5971,-3.0062,-2.3310,0.2439,-1.8757
9.17500000,-2.1981,-0.4657,-2.5231,-0.0885,-0.0828,-1.0305
9.18000000,-0.1820,-0.1519,-1.3514,-0.1080,0.7790,-0.5474
9.18500000,-0.1785,0.7310,-0.7953,-0.7898,1.0083,-0.4960
9.19000000,-0.8142,0.9507,-0.8211,-0.8053,0.7478,-0.6537
9.19500000,-0.7928,0.6163,-0.9954,-0.5866,0.5632,-0.8087
9.20000000,-0.5816,0.4108,-1.0905,-0.4676,0.5328,-0.7331
9.20500000,-0.5309,0.3870,-1.0302,-0.4571,0.4528,-0.6738
9.21000000,-0.5023,0.4524,-0.9479,-0.3264,0.5442,-0.5710
9.21500000,-0.4221,0.5837,-0.9042,-0.3138,0.4641,-0.6001
9.22000000,-0.4328,0.5964,-0.9517,-0.3576,0.3341,-0.6909
9.22500000,-0.3797,0.4810,-1.0074,-0.0930,0.1162,-0.6872
9.23000000,-0.1549,0.3513,-0.9970,0.0136,0.1012,-0.6868
9.23500000,0.0050,0.3166,-0.9884,0.0748,0.2514,-0.6792
9.24000000,0.0811,0.4114,-0.9987,0.1083,0.4085,-0.6604
9.24500000,0.0753,0.4570,-1.0115,0.0104,0.4802,-0.6199
9.25000000,-0.0465,0.4377,-0.9720,-0.0527,0.5564,-0.5054
9.25500000,-0.1476,0.4079,-0.9424,-0.0403,0.5373,-0.5833
9.26000000,-0.1900,0.3673,-0.9856,-0.0500,0.7262,-0.5447
9.26500000,-0.0637,0.2929,-0.9982,0.2609,0.5709,-0.5634
9.27000000,0.1218,0.0989,-0.9778,0.0263,0.3323,-0.4957
9.27500000,-0.0025,-0.0176,-0.9170,-0.3329,0.5179,-0.3773
9.28000000,-0.2274,0.4546,-0.8241,-0.3530,1.6048,-0.4863
9.28500000,-0.2712,0.8842,-0.8163,-0.1624,1.2390,-0.4811
9.29000000,-0.1848,0.3799,-0.8411,-0.0933,0.6647,-0.4591
9.29500000,-0.1528,-0.0301,-0.7506,-0.3557,0.8203,-0.4359
9.30000000,-0.3087,0.1643,-0.6426,-0.5979,0.9492,-0.4940
9.30500000,-0.1462,0.3809,-0.6875,-0.1119,0.9076,-0.6454
9.31000000,0.3236,0.5449,-0.8055,-0.1337,0.6999,-0.5951
9.31500000,0.1942,0.4945,-1.0330,-0.6255,0.4188,-0.7910
9.32000000,-0.1505,0.3107,-1.2620,-0.3607,0.6969,-0.6547
9.32500000,0.1399,0.4767,-1.3307,0.0797,1.5050,-0.7889
9.33000000,0.4908,0.5702,-1.4409,-0.0433,1.4917,-0.7449
9.33500000,0.4968,0.4475,-1.6058,0.0260,1.8749,-0.9029
9.34000000,0.5576,0.6752,-1.8636,0.2098,1.9957,-1.0550
9.34500000,0.5419,0.9104,-2.3071,-0.0471,2.0819,-1.4036
9.35000000,0.3234,1.1365,-3.0086,-0.1713,2.4290,-2.1227
9.35500000,0.1552,1.4641,-3.7142,-0.1391,2.4922,-2.3602
9.36000000,-0.0959,1.2598,-3.7524,-0.4326,1.8804,-1.7902
9.36500000,-0.8992,0.8509,-2.7258,-1.8323,2.0381,-0.1992
9.37000000,-2.2104,0.8066,-1.1368,-2.9689,1.8781,0.9451
9.37500000,-5.1260,1.2796,-0.9243,-7.1398,2.9419,-0.9604
9.38000000,-6.9230,2.3985,-2.4615,-3.5565,3.6457,-2.4545
9.38500000,-3.8084,2.9653,-2.9520,-0.9017,2.7692,-1.4190
9.39000000,-1.1294,2.3987,-1.3771,-1.3125,2.0767,-0.1502
9.39500000,-1.2548,1.4704,0.2045,-1.2326,1.5409,0.2521
9.40000000,-1.1146,0.5924,0.4971,-0.9401,1.2941,-0.1634
9.40500000,-0.7779,0.0371,-0.2901,-0.7276,1.2754,-1.0449
9.41000000,-0.6123,-0.1106,-1.5883,-0.5176,1.3691,-1.9654
9.41500000,-0.4312,-0.0308,-2.8501,-0.3013,1.4460,-2.6102
9.42000000,-0.1442,0.0155,-3.8710,-0.0644,1.3508,-3.0438
9.42500000,0.1700,-0.1025,-4.5644,0.0471,1.1123,-3.0960
9.43000000,0.3137,-0.2762,-4.7158,0.0593,0.9177,-2.7742
9.43500000,0.3318,-0.3595,-4.4141,0.1098,0.8187,-2.2669
9.44000000,0.4484,-0.3181,-3.9196,0.3330,0.8201,-1.7088
9.44500000,0.7097,-0.1728,-3.4360,0.5212,0.9246,-1.2907
9.45000000,0.9468,0.0752,-3.1638,0.5757,1.1580,-0.9348
9.45500000,1.0621,0.4095,-3.1488,0.5553,1.4045,-0.9403
9.46000000,1.0964,0.7556,-3.3171,0.5567,1.5939,-1.0980
9.46500000,1.0825,1.1497,-3.5780,0.5185,1.8919,-1.2945
9.47000000,1.0413,1.5788,-3.8064,0.5223,2.0218,-1.3779
9.47500000,1.0013,1.8749,-3.9101,0.5485,2.0632,-1.3850
9.48000000,0.9660,2.1112,-3.9121,0.6142,2.1892,-1.3540
9.48500000,0.9425,2.4415,-3.8041,0.6193,2.2928,-1.2689
9.49000000,0.9385,2.8088,-3.5298,0.5630,2.4417,-1.1569
9.49500000,0.9652,3.0905,-3.1484,0.5124,2.4865,-1.0841
9.50000000,1.0585,3.2412,-2.8154,0.4706,2.4774,-1.1455
9.50500000,1.1630,3.2951,-2.6458,0.3780,2.4231,-1.3431
9.51000000,1.2094,3.2530,-2.6090,0.3186,2.2432,-1.5667
9.51500000,1.2428,3.0936,-2.5669,0.3510,1.9799,-1.7051
9.52000000,1.3037,2.8687,-2.3820,0.5857,1.6151,-1.8508
9.52500000,1.3874,2.6481,-2.0239,0.7807,1.3809,-1.7025
9.53000000,1.4626,2.4574,-1.6420,0.9236,1.2000,-1.6348
9.53500000,1.4768,2.3173,-1.4021,0.9935,1.0482,-1.6943
9.54000000,1.4316,2.2128,-1.3653,1.0216,0.8701,-1.9053
9.54500000,1.3352,2.0694,-1.5084,0.9750,0.6022,-2.1727
9.55000000,1.1274,1.7370,-1.7701,0.8035,0.0487,-2.4951
9.55500000,0.8745,1.2277,-2.0294,0.8152,-0.4404,-2.6559
9.56000000,0.7382,0.8134,-2.1621,0.8353,-0.8986,-2.6642
9.56500000,0.6610,0.5757,-2.2388,0.8038,-1.0389,-2.6893
9.57000000,0.5168,0.4117,-2.3469,0.7100,-1.1357,-2.6948
9.57500000,0.3305,0.2924,-2.4284,0.6149,-1.1998,-2.6197
9.58000000,0.1662,0.2062,-2.4243,0.5340,-1.2577,-2.4753
9.58500000,0.0250,0.1411,-2.3679,0.4587,-1.2955,-2.2349
9.59000000,-0.1816,0.1286,-2.2992,0.2526,-1.2607,-2.0774
9.59500000,-0.4613,0.1863,-2.2188,0.1118,-1.2026,-1.9550
9.60000000,-0.6820,0.2848,-2.1559,0.0388,-1.1187,-1.8623
9.60500000,-0.8186,0.4203,-2.1279,-0.0090,-1.0003,-1.8111
9.61000000,-0.9535,0.6180,-2.1512,-0.1061,-0.8197,-1.8390
9.61500000,-1.1232,0.8739,-2.2299,-0.2183,-0.6274,-1.8985
9.62000000,-1.2718,1.1418,-2.3029,-0.2638,-0.4453,-1.9475
9.62500000,-1.3571,1.3817,-2.3438,-0.2654,-0.2943,-2.1070
9.63000000,-1.4070,1.5847,-2.3714,-0.2290,-0.1606,-2.2228
9.63500000,-1.4617,1.7599,-2.4043,-0.2293,-0.0445,-2.4013
9.64000000,-1.5434,1.8494,-2.5054,-0.2019,-0.0685,-2.6912
9.64500000,-1.6286,1.7890,-2.7003,-0.1725,-0.1631,-3.0173
9.65000000,-1.7613,1.6441,-2.9076,-0.2340,-0.2689,-3.2817
9.65500000,-1.9788,1.4918,-3.0811,-0.3340,-0.3681,-3.5241
9.66000000,-2.2424,1.3447,-3.2489,-0.5224,-0.4708,-3.6571
9.66500000,-2.5314,1.1725,-3.3781,-0.7482,-0.6273,-3.7024
9.67000000,-2.8211,0.9143,-3.4337,-1.0214,-0.8697,-3.7261
9.67500000,-3.1178,0.5397,-3.4689,-1.3377,-1.1909,-3.7722
9.68000000,-3.4393,0.0602,-3.5050,-1.6507,-1.5746,-3.7864
9.68500000,-3.7706,-0.5112,-3.5093,-1.9249,-2.0251,-3.7753
9.69000000,-4.1082,-1.1323,-3.4933,-2.1064,-2.4565,-3.7379
9.69500000,-4.4842,-1.6747,-3.4885,-2.3471,-2.7499,-3.5778
9.70000000,-4.9450,-2.0028,-3.4811,-2.6976,-2.8566,-3.3304
9.70500000,-5.4860,-2.1236,-3.3791,-3.1196,-2.8904,-2.9523
9.71000000,-6.0208,-2.1694,-3.0113,-3.5405,-2.9350,-2.3153
9.71500000,-6.4823,-2.2492,-2.2605,-3.9852,-3.0328,-1.4542
9.72000000,-6.8867,-2.3803,-1.1933,-4.4641,-3.1400,-0.4841
9.72500000,-7.2129,-2.5494,-0.0310,-4.8732,-3.2763,0.3947
9.73000000,-7.4001,-2.7227,0.9543,-5.1738,-3.1792,1.0225
9.73500000,-7.4512,-2.8028,1.5658,-5.3402,-2.8468,1.3415
9.74000000,-7.3896,-2.6994,1.7896,-5.3485,-2.3636,1.4623
9.74500000,-7.2121,-2.3759,1.7841,-5.1402,-1.7666,1.5966
9.75000000,-6.9116,-1.8337,1.7402,-4.8035,-0.8400,1.6042
9.75500000,-6.5342,-1.1443,1.7645,-4.4849,-0.1241,1.6026
9.76000000,-6.3250,-0.5089,2.1038,-4.5865,0.4560,2.0464
9.76500000,-6.5394,-0.5626,3.1537,-5.1303,0.1724,3.1273
9.77000000,-7.7637,-2.6437,5.2263,-6.9295,-2.5190,5.4848
9.77500000,-9.2850,-5.3242,6.7092,-7.1625,-2.7886,5.2007
9.78000000,-7.9069,-3.5850,2.9921,-4.2610,2.0295,-1.4005
9.78500000,-3.4047,3.0308,-5.7913,-1.3382,7.3128,-7.4633
9.79000000,-0.7430,9.8343,-13.3130,-2.4973,11.0163,-11.0769
9.79500000,-4.3648,6.9162,-16.6782,-8.7451,-1.8686,-11.5022
9.80000000,-7.1686,-3.1410,-12.0450,-3.2886,-3.5069,-0.6657
9.80500000,-1.3231,-3.8039,-2.0271,2.8624,0.3322,2.0572
9.81000000,2.9066,-0.5659,0.4828,-0.1303,-0.3055,-1.4195
9.81500000,-0.2734,-1.5474,-2.4640,-2.4386,-0.4910,-1.5156
9.82000000,-2.1652,-1.5412,-2.5653,-0.8790,-0.3846,-1.0775
9.82500000,-0.6581,-0.7802,-1.7153,-0.0006,0.2528,-1.0303
9.83000000,0.3742,-0.3921,-1.5480,0.1302,0.1973,-1.1060
9.83500000,0.2760,-0.2259,-1.5382,-0.1910,0.2898,-1.1396
9.84000000,-0.3267,0.0920,-1.3941,-0.7606,0.8344,-0.7464
9.84500000,-0.9833,0.5999,-1.0398,-0.9289,0.6185,-0.6330
9.85000000,-1.1328,0.4643,-0.9031,-0.7068,0.2342,-0.7173
9.85500000,-0.8345,0.0381,-1.0093,-0.2834,-0.0253,-0.8056
9.86000000,-0.5091,-0.1552,-1.1383,-0.1766,-0.0612,-0.8662
9.86500000,-0.3028,0.0596,-1.1069,0.0225,0.3581,-0.6526
9.87000000,-0.1282,0.6349,-0.8567,-0.0069,0.7130,-0.4575
9.87500000,-0.1394,1.0097,-0.7681,-0.1484,0.7514,-0.6123
9.88000000,-0.2355,0.9297,-0.9312,-0.0760,0.5364,-0.6904
9.88500000,-0.1739,0.5970,-1.0293,0.0663,0.2398,-0.6766
9.89000000,-0.1224,0.2696,-1.0081,0.0003,0.2342,-0.6148
9.89500000,-0.2474,0.1878,-1.0021,-0.1310,0.4025,-0.6311
9.90000000,-0.3341,0.3641,-0.9996,-0.0310,0.6777,-0.5236
9.90500000,-0.2301,0.5438,-0.9598,0.0345,0.7480,-0.5175
9.91000000,-0.1373,0.5451,-0.9205,0.0486,0.8217,-0.4254
9.91500000,-0.1368,0.4870,-0.8944,0.0487,0.8887,-0.4553
9.92000000,-0.1022,0.4072,-0.9278,0.1048,0.9213,-0.5039
9.92500000,-0.0395,0.3309,-0.9559,0.0490,0.9733,-0.4866
9.93000000,-0.0205,0.3490,-0.9200,0.0122,1.0328,-0.4698
9.93500000,-0.1268,0.3377,-0.8685,-0.2881,0.9348,-0.4239
9.94000000,-0.4200,0.2966,-0.7723,-0.6215,1.0048,-0.3983
9.94500000,-0.5317,0.2634,-0.6764,-0.4828,0.7621,-0.4812
9.95000000,-0.2152,0.1994,-0.6922,-0.2605,0.4490,-0.5829
9.95500000,0.0077,0.3155,-0.8991,-0.4546,0.4137,-0.7908
9.96000000,0.2431,0.4613,-0.9994,0.2473,0.5038,-0.3686
9.96500000,0.6733,0.4323,-0.8547,0.1785,0.7483,-0.1603
9.97000000,0.5523,0.5404,-1.0479,-0.1526,1.6037,-0.6067
9.97500000,0.2008,0.6402,-1.5343,-0.1040,1.7259,-0.8655
9.98000000,0.2841,0.5195,-1.8170,0.0791,1.7120,-0.9561
9.98500000,0.5308,0.6131,-1.9654,0.2823,2.0410,-0.9353
9.99000000,0.5835,0.9183,-2.2680,0.1599,2.1056,-1.2042
9.99500000,0.2111,0.8626,-2.6682,-0.2716,1.7732,-1.2668
10.00000000,-0.1599,0.7553,-3.1446,0.0202,2.1012,-1.8047
10.00500000,-0.4416,0.6788,-3.3373,-0.4724,1.5262,-1.1529
10.01000000,-0.9376,0.2651,-1.9786,-0.6521,1.4355,1.3017
10.01500000,-4.1663,1.0936,-0.8215,-7.3512,3.4744,0.1389
10.02000000,-7.7634,3.2588,-2.2402,-4.8842,4.3388,-1.7891
10.02500000,-5.0015,4.0331,-3.4363,-0.8158,3.1997,-1.5744
10.03000000,-1.0014,3.0019,-2.2326,-0.7495,2.3906,-0.3427
10.03500000,-0.6937,1.6686,-0.5015,-0.9557,1.4420,0.1270
10.04000000,-0.7794,0.6388,0.0817,-0.7114,1.0325,-0.2823
10.04500000,-0.4443,0.0198,-0.5189,-0.6344,1.0515,-0.9827
10.05000000,-0.2917,-0.1779,-1.6638,-0.4719,1.2700,-1.7630
10.05500000,-0.2044,-0.0910,-2.7923,-0.2856,1.3972,-2.3193
10.06000000,-0.0669,0.0718,-3.6029,-0.1526,1.4156,-2.5732
10.06500000,0.0376,0.1713,-4.0170,-0.1019,1.3578,-2.5723
10.07000000,0.0825,0.2120,-4.1238,-0.0870,1.2770,-2.4199
10.07500000,0.0710,0.2644,-4.0010,-0.1591,1.2663,-2.0911
10.08000000,0.0562,0.3979,-3.6605,-0.1805,1.2537,-1.5727
10.08500000,0.2494,0.6066,-3.1671,0.0959,1.4174,-1.1044
10.09000000,0.6075,0.8305,-2.7745,0.2391,1.6150,-0.9551
10.09500000,0.8290,1.0415,-2.7330,0.2634,1.7863,-1.0285
10.10000000,0.9247,1.2265,-2.9164,0.3254,1.8823,-1.1173
10.10500000,1.0298,1.3565,-3.0821,0.4085,1.9108,-1.1592
10.11000000,1.1244,1.4364,-3.1597,0.5539,1.9012,-1.1123
10.11500000,1.1649,1.5025,-3.1635,0.6211,1.8046,-1.0770
10.12000000,1.1449,1.5676,-3.1464,0.6759,1.7667,-1.0618
10.12500000,1.1090,1.6562,-3.1258,0.7303,1.8042,-1.0334
10.13000000,1.0659,1.8192,-3.0988,0.7231,1.9086,-1.0433
10.13500000,0.9751,2.0605,-3.1108,0.6363,2.0560,-1.1430
10.14000000,0.8539,2.3447,-3.1990,0.5404,2.2092,-1.3305
10.14500000,0.8190,2.7316,-3.2450,0.5033,2.4516,-1.5719
10.15000000,0.9195,3.1540,-3.0880,0.4939,2.5070,-1.5885
10.15500000,1.0479,3.3225,-2.7913,0.4419,2.3217,-1.6139
10.16000000,1.1507,3.1895,-2.5113,0.3940,2.0141,-1.6856
10.16500000,1.2283,2.9111,-2.2921,0.3570,1.6817,-1.7524
10.17000000,1.2656,2.5909,-2.0890,0.4829,1.2815,-1.9201
10.17500000,1.3051,2.3022,-1.8459,0.6699,1.0432,-1.8455
10.18000000,1.3622,2.0972,-1.5930,0.8454,0.8971,-1.8180
10.18500000,1.3728,1.9878,-1.4642,0.9240,0.7786,-1.9462
10.19000000,1.2983,1.9182,-1.5432,0.9264,0.6133,-2.1946
10.19500000,1.1590,1.7926,-1.7576,0.8702,0.3229,-2.4449
10.20000000,0.9846,1.5555,-1.9768,0.7890,-0.0472,-2.6134
10.20500000,0.7949,1.1431,-2.1580,0.6973,-0.6477,-2.7493
10.21000000,0.6214,0.6314,-2.3136,0.7332,-1.0711,-2.7576
10.21500000,0.4901,0.3106,-2.4318,0.7289,-1.2009,-2.7502
10.22000000,0.3672,0.2027,-2.5170,0.6901,-1.2524,-2.7056
10.22500000,0.2258,0.1416,-2.5770,0.6304,-1.2902,-2.6400
10.23000000,0.0697,0.0945,-2.6112,0.5276,-1.3208,-2.5465
10.23500000,-0.1104,0.0649,-2.6218,0.4004,-1.3337,-2.4367
10.24000000,-0.3029,0.0563,-2.6070,0.2881,-1.3326,-2.3179
10.24500000,-0.4875,0.0782,-2.5626,0.1879,-1.2976,-2.1874
10.25000000,-0.6645,0.1571,-2.4840,0.1040,-1.2034,-2.0474
10.25500000,-0.8287,0.3072,-2.3901,0.0374,-1.0698,-1.9413
10.26000000,-0.9793,0.5052,-2.3161,-0.0439,-0.9168,-1.8899
10.26500000,-1.1222,0.7285,-2.2806,-0.1011,-0.7475,-1.9193
10.27000000,-1.2334,0.9473,-2.2783,-0.1310,-0.6126,-1.9937
10.27500000,-1.2897,1.1320,-2.3216,-0.1135,-0.4924,-2.1582
10.28000000,-1.3298,1.3069,-2.4394,-0.1174,-0.3527,-2.3949
10.28500000,-1.4191,1.4800,-2.6065,-0.1576,-0.2454,-2.6646
10.29000000,-1.5333,1.5455,-2.7605,-0.1519,-0.3059,-2.9228
10.29500000,-1.6231,1.4173,-2.8660,-0.1455,-0.4723,-3.1427
10.30000000,-1.7310,1.1811,-2.9488,-0.1838,-0.6356,-3.3597
10.30500000,-1.8783,0.9569,-3.0803,-0.2481,-0.7694,-3.5556
10.31000000,-2.0561,0.7900,-3.2910,-0.4245,-0.8495,-3.7368
10.31500000,-2.2916,0.6730,-3.5493,-0.7121,-0.9256,-3.9373
10.32000000,-2.5755,0.5426,-3.8001,-1.0486,-1.0500,-4.0989
10.32500000,-2.8710,0.3346,-4.0114,-1.3943,-1.2477,-4.2472
10.33000000,-3.1715,0.0068,-4.1700,-1.7332,-1.5544,-4.3265
10.33500000,-3.4833,-0.4516,-4.2294,-2.0434,-1.9305,-4.3100
10.34000000,-3.9187,-1.0714,-4.1275,-2.5503,-2.4903,-4.1384
10.34500000,-4.5156,-1.6958,-3.8501,-2.9932,-2.7570,-3.8567
10.35000000,-5.0825,-1.9738,-3.4275,-3.4671,-2.7535,-3.0225
10.35500000,-5.6026,-1.9201,-2.8531,-3.9628,-2.6571,-2.2529
10.36000000,-6.1839,-1.7822,-2.1183,-4.4914,-2.5747,-1.4190
10.36500000,-6.7754,-1.6958,-1.2216,-4.9545,-2.5808,-0.4897
10.37000000,-7.2673,-1.7253,-0.1578,-5.2818,-2.6646,0.4981
10.37500000,-7.5985,-1.8189,0.9286,-5.4655,-2.6350,1.3274
10.38000000,-7.7677,-1.8360,1.7418,-5.5116,-2.2870,1.7789
10.38500000,-7.8120,-1.6385,2.0786,-5.4474,-1.4337,1.8745
10.39000000,-7.7682,-1.1956,2.0173,-5.3474,-0.7879,1.6816
10.39500000,-7.5874,-0.6052,1.8648,-5.1169,-0.1234,1.5350
10.40000000,-7.2116,-0.0388,1.8846,-4.8063,0.4023,1.4932
10.40500000,-6.7382,0.2790,2.0261,-4.5470,0.6581,1.3514
10.41000000,-6.3249,0.1935,2.0605,-4.3488,0.6161,1.0858
10.41500000,-5.9319,-0.3281,1.9430,-4.0140,0.2637,0.8388
10.42000000,-5.5793,-1.4225,2.3738,-3.9596,-0.6731,1.9221
10.42500000,-5.4038,-3.4470,3.8051,-3.8493,-2.4262,3.4419
10.43000000,-4.2416,-4.1696,3.6484,-1.5175,-0.3279,1.3520
10.43500000,-1.5783,-1.4084,0.1076,-0.1987,2.3939,-1.6173
10.44000000,0.0200,1.7852,-3.7949,-1.1597,3.4845,-3.0573
10.44500000,-0.9356,6.2061,-8.1834,-3.2119,10.0397,-8.3415
10.45000000,-5.7422,5.9816,-14.2811,-10.0595,-0.9614,-11.8077
10.45500000,-7.9736,-3.2118,-11.5334,-2.3834,-5.1795,0.7689
10.46000000,-0.8451,-4.7096,-1.2185,3.4471,0.3744,1.5936
10.46500000,2.9739,0.6773,0.3800,-0.8284,1.7685,-1.6205
10.47000000,-1.1759,0.3568,-2.6431,-2.5672,-0.4668,-1.3180
10.47500000,-2.3090,-1.3729,-2.2785,-0.2312,-0.7752,-1.0587
10.48000000,-0.1561,-0.7071,-1.4958,0.1860,0.7223,-0.7293
10.48500000,0.4921,0.1374,-1.2208,-0.0528,0.1667,-0.9248
10.49000000,-0.1564,0.0433,-1.1807,-0.8308,0.4655,-0.8195
10.49500000,-0.9360,0.2156,-1.0693,-0.9782,0.5932,-0.6597
10.50000000,-1.0759,0.5742,-0.9180,-0.4873,0.4609,-0.6592
10.50500000,-0.5658,0.4512,-0.8950,-0.1245,0.2426,-0.6687
10.51000000,-0.2849,0.2725,-0.9377,-0.1929,0.3157,-0.6652
10.51500000,-0.3701,0.5715,-0.8913,-0.2687,0.9036,-0.4460
10.52000000,-0.3633,1.1058,-0.7199,-0.0763,0.8008,-0.4375
10.52500000,-0.1917,1.0056,-0.7343,-0.0546,0.3714,-0.5812
10.53000000,-0.1937,0.5680,-0.8995,-0.2081,0.2930,-0.6422
10.53500000,-0.3274,0.3569,-0.9988,-0.2367,0.2497,-0.7231
10.54000000,-0.2672,0.2513,-1.0279,0.0284,0.1829,-0.6910
10.54500000,-0.0567,0.1171,-1.0255,0.0180,-0.0157,-0.6212
10.55000000,0.0084,0.1253,-1.0002,-0.1427,0.2715,-0.4605
10.55500000,-0.0149,0.3461,-0.9382,-0.0732,0.5472,-0.4443
10.56000000,0.0363,0.4912,-0.9150,-0.0606,0.7228,-0.4655
10.56500000,-0.0856,0.6260,-0.8904,-0.3574,1.0615,-0.3936
10.57000000,-0.3912,0.7642,-0.8646,-0.3293,1.1635,-0.4824
